Temperature (K)	Pressure (Pa)	"Density (l, kg/m3)"	"Volume (l, m3/kg)"	"Internal Energy (l, J/kg)"	"Enthalpy (l, J/kg)"	"Entropy (l, J/kg*K)"	"Cv (l, J/kg*K)"	"Cp (l, J/kg*K)"	"Sound Spd. (l, m/s)"	"Joule-Thomson (l, K/Pa)"	"Viscosity (l, Pa*s)"	"Therm. Cond. (l, W/m*K)"	"Surf. Tension (l, N/m)"	"Density (v, kg/m3)"	"Volume (v, m3/kg)"	"Internal Energy (v, J/kg)"	"Enthalpy (v, J/kg)"	"Entropy (v, J/kg*K)"	"Cv (v, J/kg*K)"	"Cp (v, J/kg*K)"	"Sound Spd. (v, m/s)"	"Joule-Thomson (v, K/Pa)"	"Viscosity (v, Pa*s)"	"Therm. Cond. (v, W/m*K)"
169.85	389.56	1591.1	0.00062849	71455	71455	412.62	792.21	1183.8	1120	-3.81E-07	0.0021536	0.14524	0.028073	0.028172	35.496	321110	334940	1963.9	502.96	585.3	126.79	0.00037357	6.83E-06	0.0030801
170.19	404.7	1590.2	0.00062885	71858	71858	414.99	792.07	1183.8	1118.2	-3.81E-07	0.0021224	0.14503	0.028014	0.029209	34.236	321280	335140	1962	503.76	586.12	126.91	0.00036728	6.84E-06	0.0031074
170.53	420.35	1589.3	0.0006292	72261	72261	417.36	791.94	1183.8	1116.5	-3.81E-07	0.002092	0.14482	0.027955	0.030279	33.027	321450	335330	1960	504.56	586.93	127.02	0.00036112	6.86E-06	0.0031347
170.87	436.53	1588.4	0.00062956	72664	72665	419.72	791.81	1183.9	1114.8	-3.81E-07	0.0020624	0.14462	0.027896	0.031382	31.865	321620	335530	1958.1	505.36	587.75	127.13	0.0003551	6.87E-06	0.003162
171.21	453.24	1587.5	0.00062992	73068	73068	422.07	791.7	1183.9	1113	-3.81E-07	0.0020335	0.14441	0.027837	0.03252	30.751	321790	335730	1956.2	506.16	588.57	127.24	0.00034922	6.88E-06	0.0031892
171.55	470.52	1586.6	0.00063027	73471	73471	424.43	791.59	1183.9	1111.3	-3.80E-07	0.0020054	0.1442	0.027778	0.033693	29.68	321960	335930	1954.3	506.95	589.38	127.35	0.00034347	6.90E-06	0.0032165
171.89	488.36	1585.7	0.00063063	73874	73874	426.78	791.49	1184	1109.6	-3.80E-07	0.001978	0.14399	0.027719	0.034902	28.651	322130	336120	1952.4	507.75	590.2	127.46	0.00033784	6.91E-06	0.0032438
172.23	506.79	1584.8	0.00063099	74277	74278	429.12	791.4	1184	1107.8	-3.80E-07	0.0019512	0.14378	0.02766	0.036149	27.663	322300	336320	1950.6	508.55	591.02	127.57	0.00033234	6.92E-06	0.0032711
172.57	525.83	1583.9	0.00063135	74681	74681	431.46	791.32	1184.1	1106.1	-3.80E-07	0.0019251	0.14358	0.027602	0.037434	26.714	322470	336520	1948.7	509.35	591.84	127.68	0.00032695	6.94E-06	0.0032984
172.92	545.49	1583	0.00063171	75084	75084	433.79	791.25	1184.2	1104.4	-3.79E-07	0.0018996	0.14337	0.027543	0.038758	25.801	322640	336720	1946.9	510.15	592.65	127.79	0.00032169	6.95E-06	0.0033257
173.26	565.79	1582.1	0.00063207	75487	75488	436.12	791.18	1184.3	1102.7	-3.79E-07	0.0018747	0.14316	0.027484	0.040122	24.924	322810	336910	1945	510.95	593.47	127.9	0.00031654	6.96E-06	0.003353
173.6	586.74	1581.2	0.00063243	75891	75891	438.45	791.12	1184.3	1100.9	-3.79E-07	0.0018504	0.14295	0.027426	0.041528	24.08	322980	337110	1943.2	511.75	594.29	128.01	0.0003115	6.98E-06	0.0033803
173.94	608.36	1580.3	0.00063279	76294	76294	440.77	791.07	1184.4	1099.2	-3.79E-07	0.0018266	0.14275	0.027367	0.042975	23.269	323150	337310	1941.4	512.54	595.11	128.12	0.00030657	6.99E-06	0.0034076
174.28	630.68	1579.4	0.00063315	76698	76698	443.09	791.02	1184.5	1097.5	-3.78E-07	0.0018034	0.14254	0.027308	0.044466	22.489	323330	337510	1939.6	513.34	595.92	128.23	0.00030175	7.01E-06	0.0034349
174.62	653.7	1578.5	0.00063351	77101	77101	445.4	790.99	1184.6	1095.7	-3.78E-07	0.0017807	0.14234	0.02725	0.046001	21.739	323500	337710	1937.8	514.14	596.74	128.34	0.00029703	7.02E-06	0.0034622
174.96	677.45	1577.6	0.00063387	77504	77505	447.71	790.96	1184.8	1094	-3.78E-07	0.0017585	0.14213	0.027191	0.047581	21.017	323670	337910	1936.1	514.94	597.56	128.45	0.00029242	7.03E-06	0.0034895
175.3	701.95	1576.7	0.00063423	77908	77908	450.01	790.93	1184.9	1092.2	-3.78E-07	0.0017368	0.14192	0.027133	0.049207	20.322	323840	338110	1934.3	515.73	598.38	128.56	0.0002879	7.05E-06	0.0035167
175.64	727.21	1575.8	0.0006346	78312	78312	452.31	790.91	1185	1090.5	-3.77E-07	0.0017155	0.14172	0.027074	0.050881	19.654	324010	338310	1932.6	516.53	599.2	128.67	0.00028348	7.06E-06	0.003544
175.98	753.26	1574.9	0.00063496	78715	78716	454.61	790.9	1185.1	1088.8	-3.77E-07	0.0016947	0.14152	0.027016	0.052603	19.01	324190	338510	1930.9	517.33	600.02	128.78	0.00027915	7.07E-06	0.0035713
176.32	780.12	1574	0.00063532	79119	79119	456.9	790.9	1185.3	1087	-3.77E-07	0.0016744	0.14131	0.026957	0.054376	18.391	324360	338710	1929.1	518.12	600.84	128.89	0.00027491	7.09E-06	0.0035986
176.66	807.8	1573.1	0.00063569	79523	79523	459.19	790.9	1185.4	1085.3	-3.77E-07	0.0016544	0.14111	0.026899	0.056199	17.794	324530	338910	1927.4	518.92	601.66	129	0.00027077	7.10E-06	0.0036259
177	836.34	1572.2	0.00063605	79926	79927	461.47	790.91	1185.6	1083.6	-3.76E-07	0.0016349	0.1409	0.02684	0.058074	17.219	324710	339110	1925.7	519.72	602.48	129.11	0.00026671	7.11E-06	0.0036532
177.34	865.74	1571.3	0.00063642	80330	80331	463.75	790.93	1185.7	1081.8	-0.000000376	0.0016158	0.1407	0.026782	0.060002	16.666	324880	339310	1924.1	520.51	603.29	129.21	0.00026273	7.13E-06	0.0036805
177.68	896.03	1570.4	0.00063679	80734	80735	466.03	790.95	1185.9	1080.1	-3.76E-07	0.0015971	0.1405	0.026723	0.061985	16.133	325050	339510	1922.4	521.31	604.11	129.32	0.00025884	7.14E-06	0.0037078
178.02	927.24	1569.5	0.00063715	81138	81139	468.3	790.97	1186	1078.4	-3.75E-07	0.0015787	0.14029	0.026665	0.064024	15.619	325230	339710	1920.7	522.11	604.93	129.43	0.00025503	7.15E-06	0.0037351
178.36	959.39	1568.6	0.00063752	81542	81543	470.57	791.01	1186.2	1076.6	-3.75E-07	0.0015607	0.14009	0.026607	0.066119	15.124	325400	339910	1919.1	522.9	605.75	129.54	0.0002513	7.17E-06	0.0037624
178.71	992.5	1567.7	0.00063789	81946	81947	472.83	791.04	1186.4	1074.9	-3.75E-07	0.0015431	0.13989	0.026548	0.068274	14.647	325580	340110	1917.5	523.7	606.57	129.65	0.00024765	7.18E-06	0.0037897
179.05	1026.6	1566.8	0.00063826	82350	82351	475.09	791.09	1186.6	1073.2	-3.75E-07	0.0015258	0.13968	0.02649	0.070487	14.187	325750	340310	1915.9	524.49	607.4	129.75	0.00024407	7.19E-06	0.003817
179.39	1061.7	1565.9	0.00063863	82754	82755	477.34	791.14	1186.8	1071.4	-3.74E-07	0.0015088	0.13948	0.026432	0.072762	13.743	325920	340520	1914.2	525.29	608.22	129.86	0.00024056	7.21E-06	0.0038443
179.73	1097.8	1565	0.000639	83159	83159	479.59	791.19	1187	1069.7	-3.74E-07	0.0014922	0.13928	0.026374	0.075099	13.316	326100	340720	1912.6	526.08	609.04	129.97	0.00023713	7.22E-06	0.0038716
180.07	1135	1564.1	0.00063937	83563	83564	481.84	791.25	1187.2	1068	-3.74E-07	0.0014758	0.13908	0.026316	0.077499	12.903	326280	340920	1911.1	526.88	609.86	130.08	0.00023377	7.23E-06	0.0038989
180.41	1173.3	1563.1	0.00063974	83967	83968	484.08	791.32	1187.4	1066.2	-3.73E-07	0.0014598	0.13888	0.026257	0.079965	12.506	326450	341120	1909.5	527.67	610.68	130.18	0.00023047	7.25E-06	0.0039262
180.75	1212.7	1562.2	0.00064011	84372	84373	486.32	791.39	1187.6	1064.5	-3.73E-07	0.0014441	0.13868	0.026199	0.082497	12.122	326630	341330	1907.9	528.47	611.5	130.29	0.00022725	7.26E-06	0.0039535
181.09	1253.2	1561.3	0.00064048	84776	84777	488.56	791.46	1187.8	1062.8	-3.73E-07	0.0014287	0.13848	0.026141	0.085097	11.751	326800	341530	1906.4	529.26	612.32	130.4	0.00022408	7.28E-06	0.0039808
181.43	1294.9	1560.4	0.00064085	85181	85182	490.79	791.55	1188	1061.1	-3.72E-07	0.0014135	0.13828	0.026083	0.087766	11.394	326980	341730	1904.8	530.06	613.15	130.5	0.00022098	7.29E-06	0.0040081
181.77	1337.7	1559.5	0.00064122	85586	85586	493.02	791.63	1188.2	1059.3	-3.72E-07	0.0013986	0.13808	0.026025	0.090506	11.049	327150	341930	1903.3	530.85	613.97	130.61	0.00021795	7.30E-06	0.0040354
182.11	1381.8	1558.6	0.0006416	85990	85991	495.25	791.72	1188.5	1057.6	-3.72E-07	0.001384	0.13788	0.025967	0.093319	10.716	327330	342140	1901.8	531.64	614.79	130.71	0.00021497	7.32E-06	0.0040627
182.45	1427.2	1557.7	0.00064197	86395	86396	497.47	791.82	1188.7	1055.9	-3.71E-07	0.0013697	0.13768	0.025909	0.096205	10.394	327510	342340	1900.3	532.44	615.61	130.82	0.00021205	7.33E-06	0.00409
182.79	1473.8	1556.8	0.00064235	86800	86801	499.68	791.92	1188.9	1054.1	-3.71E-07	0.0013556	0.13748	0.025851	0.099167	10.084	327680	342550	1898.8	533.23	616.44	130.92	0.0002092	7.34E-06	0.0041173
183.13	1521.7	1555.9	0.00064272	87205	87206	501.9	792.02	1189.2	1052.4	-3.71E-07	0.0013417	0.13728	0.025793	0.10221	9.7842	327860	342750	1897.3	534.03	617.26	131.03	0.00020639	7.36E-06	0.0041446
183.47	1570.9	1555	0.0006431	87610	87611	504.11	792.13	1189.4	1050.7	-3.70E-07	0.0013281	0.13708	0.025735	0.10532	9.4946	328040	342950	1895.8	534.82	618.08	131.13	0.00020365	7.37E-06	0.0041719
183.81	1621.6	1554.1	0.00064347	88015	88016	506.31	792.24	1189.7	1048.9	-3.70E-07	0.0013147	0.13688	0.025677	0.10852	9.2148	328220	343160	1894.4	535.61	618.91	131.24	0.00020095	7.38E-06	0.0041992
184.16	1673.6	1553.2	0.00064385	88420	88422	508.52	792.36	1189.9	1047.2	-3.70E-07	0.0013015	0.13668	0.025619	0.1118	8.9445	328390	343360	1892.9	536.41	619.73	131.34	0.00019831	7.40E-06	0.0042265
184.5	1727	1552.2	0.00064423	88826	88827	510.71	792.48	1190.2	1045.5	-3.69E-07	0.0012886	0.13648	0.025562	0.11516	8.6833	328570	343570	1891.5	537.2	620.56	131.45	0.00019572	7.41E-06	0.0042538
184.84	1781.9	1551.3	0.0006446	89231	89232	512.91	792.61	1190.5	1043.8	-3.69E-07	0.0012759	0.13629	0.025504	0.11861	8.4308	328750	343770	1890	537.99	621.38	131.55	0.00019318	7.42E-06	0.0042811
185.18	1838.3	1550.4	0.00064498	89637	89638	515.1	792.74	1190.7	1042	-3.69E-07	0.0012634	0.13609	0.025446	0.12215	8.1868	328930	343980	1888.6	538.79	622.21	131.66	0.00019069	7.44E-06	0.0043085
185.52	1896.2	1549.5	0.00064536	90042	90044	517.29	792.87	1191	1040.3	-3.68E-07	0.0012511	0.13589	0.025388	0.12577	7.9509	329110	344180	1887.2	539.58	623.03	131.76	0.00018825	7.45E-06	0.0043358
185.86	1955.7	1548.6	0.00064574	90448	90449	519.48	793.01	1191.3	1038.6	-3.68E-07	0.001239	0.1357	0.025331	0.12949	7.7228	329280	344390	1885.8	540.37	623.86	131.87	0.00018586	7.46E-06	0.0043631
186.2	2016.8	1547.7	0.00064612	90854	90855	521.66	793.15	1191.6	1036.9	-3.68E-07	0.001227	0.1355	0.025273	0.13329	7.5023	329460	344590	1884.4	541.16	624.69	131.97	0.00018351	7.48E-06	0.0043904
186.54	2079.4	1546.8	0.0006465	91260	91261	523.83	793.3	1191.9	1035.1	-3.67E-07	0.0012153	0.1353	0.025215	0.13719	7.289	329640	344800	1883	541.96	625.51	132.07	0.0001812	7.49E-06	0.0044177
186.88	2143.8	1545.9	0.00064688	91666	91667	526.01	793.45	1192.2	1033.4	-3.67E-07	0.0012038	0.13511	0.025158	0.14119	7.0826	329820	345000	1881.6	542.75	626.34	132.18	0.00017894	7.50E-06	0.004445
187.22	2209.9	1545	0.00064727	92072	92073	528.18	793.6	1192.4	1031.7	-3.67E-07	0.0011925	0.13491	0.0251	0.14528	6.883	330000	345210	1880.3	543.54	627.17	132.28	0.00017672	7.52E-06	0.0044723
187.56	2277.6	1544	0.00064765	92478	92479	530.35	793.76	1192.7	1030	-3.66E-07	0.0011813	0.13472	0.025042	0.14948	6.6899	330180	345420	1878.9	544.33	628	132.38	0.00017455	7.53E-06	0.0044996
187.9	2347.2	1543.1	0.00064803	92884	92886	532.51	793.92	1193	1028.2	-3.66E-07	0.0011703	0.13452	0.024985	0.15377	6.503	330360	345620	1877.6	545.13	628.83	132.48	0.00017241	7.54E-06	0.0045269
188.24	2418.6	1542.2	0.00064842	93291	93292	534.67	794.09	1193.3	1026.5	-3.65E-07	0.0011595	0.13433	0.024927	0.15817	6.3222	330540	345830	1876.2	545.92	629.65	132.59	0.00017032	7.56E-06	0.0045543
188.58	2491.8	1541.3	0.0006488	93697	93699	536.83	794.26	1193.7	1024.8	-3.65E-07	0.0011488	0.13413	0.02487	0.16268	6.1471	330720	346040	1874.9	546.71	630.48	132.69	0.00016826	7.57E-06	0.0045816
188.92	2566.9	1540.4	0.00064918	94104	94105	538.98	794.43	1194	1023.1	-3.65E-07	0.0011383	0.13394	0.024812	0.16729	5.9777	330900	346240	1873.6	547.5	631.31	132.79	0.00016624	7.58E-06	0.0046089
189.26	2643.9	1539.5	0.00064957	94510	94512	541.13	794.6	1194.3	1021.4	-3.64E-07	0.001128	0.13374	0.024755	0.17201	5.8136	331080	346450	1872.3	548.29	632.14	132.89	0.00016426	7.60E-06	0.0046362
189.6	2722.9	1538.6	0.00064996	94917	94919	543.28	794.78	1194.6	1019.7	-3.64E-07	0.0011178	0.13355	0.024697	0.17684	5.6547	331260	346660	1871	549.08	632.97	132.99	0.00016231	7.61E-06	0.0046635
189.95	2803.9	1537.6	0.00065034	95324	95326	545.43	794.96	1194.9	1017.9	-3.64E-07	0.0011078	0.13335	0.02464	0.18179	5.5008	331440	346870	1869.7	549.88	633.81	133.1	0.00016041	7.62E-06	0.0046909
190.29	2886.9	1536.7	0.00065073	95731	95733	547.57	795.15	1195.2	1016.2	-3.63E-07	0.0010979	0.13316	0.024583	0.18685	5.3518	331620	347070	1868.4	550.67	634.64	133.2	0.00015853	7.64E-06	0.0047182
190.63	2972	1535.8	0.00065112	96138	96140	549.71	795.33	1195.6	1014.5	-3.63E-07	0.0010882	0.13297	0.024525	0.19203	5.2074	331800	347280	1867.2	551.46	635.47	133.3	0.00015669	7.65E-06	0.0047455
190.97	3059.3	1534.9	0.00065151	96546	96547	551.84	795.52	1195.9	1012.8	-3.62E-07	0.0010786	0.13277	0.024468	0.19733	5.0676	331990	347490	1865.9	552.25	636.3	133.4	0.00015489	7.66E-06	0.0047728
191.31	3148.7	1534	0.0006519	96953	96955	553.97	795.72	1196.2	1011.1	-3.62E-07	0.0010691	0.13258	0.024411	0.20275	4.9321	332170	347700	1864.6	553.04	637.14	133.5	0.00015311	7.68E-06	0.0048001
191.65	3240.3	1533.1	0.00065229	97360	97362	556.1	795.91	1196.6	1009.4	-3.62E-07	0.0010598	0.13239	0.024353	0.2083	4.8008	332350	347910	1863.4	553.83	637.97	133.6	0.00015137	7.69E-06	0.0048275
191.99	3334.2	1532.2	0.00065268	97768	97770	558.22	796.11	1196.9	1007.6	-3.61E-07	0.0010506	0.1322	0.024296	0.21397	4.6735	332530	348110	1862.2	554.63	638.8	133.7	0.00014966	7.70E-06	0.0048548
192.33	3430.4	1531.2	0.00065307	98176	98178	560.35	796.32	1197.3	1005.9	-3.61E-07	0.0010416	0.13201	0.024239	0.21977	4.5501	332710	348320	1861	555.42	639.64	133.8	0.00014798	7.72E-06	0.0048821
192.67	3529	1530.3	0.00065346	98583	98586	562.46	796.52	1197.6	1004.2	-3.60E-07	0.0010326	0.13181	0.024182	0.22571	4.4305	332900	348530	1859.7	556.21	640.47	133.9	0.00014633	7.73E-06	0.0049094
193.01	3629.9	1529.4	0.00065385	98991	98994	564.58	796.73	1198	1002.5	-3.60E-07	0.0010238	0.13162	0.024125	0.23177	4.3146	333080	348740	1858.5	557	641.31	134	0.00014471	7.74E-06	0.0049368
193.35	3733.3	1528.5	0.00065425	99399	99402	566.69	796.94	1198.3	1000.8	-3.60E-07	0.0010152	0.13143	0.024067	0.23797	4.2021	333260	348950	1857.3	557.79	642.15	134.1	0.00014311	7.76E-06	0.0049641
193.69	3839.2	1527.6	0.00065464	99808	99810	568.8	797.16	1198.7	999.1	-3.59E-07	0.0010066	0.13124	0.02401	0.24431	4.0931	333440	349160	1856.1	558.58	642.98	134.2	0.00014155	7.77E-06	0.0049914
194.03	3947.6	1526.6	0.00065503	100220	100220	570.91	797.37	1199	997.39	-3.59E-07	0.00099818	0.13105	0.023953	0.25079	3.9873	333630	349370	1855	559.37	643.82	134.29	0.00014001	7.78E-06	0.0050188
194.37	4058.6	1525.7	0.00065543	100620	100630	573.01	797.59	1199.4	995.68	-3.58E-07	0.00098986	0.13086	0.023896	0.25742	3.8848	333810	349580	1853.8	560.17	644.66	134.39	0.0001385	7.80E-06	0.0050461
194.71	4172.3	1524.8	0.00065582	101030	101040	575.11	797.81	1199.8	993.98	-3.58E-07	0.00098165	0.13067	0.023839	0.26418	3.7852	333990	349790	1852.6	560.96	645.5	134.49	0.00013701	7.81E-06	0.0050734
195.05	4288.6	1523.9	0.00065622	101440	101440	577.21	798.04	1200.1	992.27	-3.58E-07	0.00097356	0.13048	0.023782	0.2711	3.6887	334180	350000	1851.5	561.75	646.34	134.59	0.00013556	7.82E-06	0.0051008
195.39	4407.7	1523	0.00065662	101850	101850	579.3	798.26	1200.5	990.57	-3.57E-07	0.00096557	0.13029	0.023725	0.27817	3.595	334360	350210	1850.3	562.54	647.18	134.69	0.00013412	7.84E-06	0.0051281
195.74	4529.5	1522	0.00065701	102260	102260	581.39	798.49	1200.9	988.86	-3.57E-07	0.00095769	0.1301	0.023668	0.28539	3.504	334540	350420	1849.2	563.33	648.02	134.78	0.00013271	7.85E-06	0.0051554
196.08	4654.2	1521.1	0.00065741	102670	102670	583.48	798.73	1201.2	987.16	-3.56E-07	0.00094992	0.12991	0.023611	0.29276	3.4158	334730	350630	1848.1	564.12	648.86	134.88	0.00013133	7.86E-06	0.0051828
196.42	4781.8	1520.2	0.00065781	103080	103080	585.57	798.96	1201.6	985.46	-3.56E-07	0.00094224	0.12972	0.023555	0.30029	3.3301	334910	350840	1846.9	564.91	649.71	134.98	0.00012996	7.88E-06	0.0052101
196.76	4912.3	1519.3	0.00065821	103490	103490	587.65	799.2	1202	983.76	-3.55E-07	0.00093467	0.12953	0.023498	0.30798	3.2469	335100	351050	1845.8	565.71	650.55	135.07	0.00012862	7.89E-06	0.0052375
197.1	5045.8	1518.3	0.00065861	103900	103900	589.73	799.43	1202.4	982.06	-3.55E-07	0.0009272	0.12934	0.023441	0.31584	3.1662	335280	351260	1844.7	566.5	651.4	135.17	0.00012731	7.90E-06	0.0052648
197.44	5182.4	1517.4	0.00065901	104310	104310	591.8	799.68	1202.8	980.36	-3.55E-07	0.00091983	0.12915	0.023384	0.32386	3.0877	335470	351470	1843.6	567.29	652.24	135.27	0.00012601	7.92E-06	0.0052921
197.78	5322.1	1516.5	0.00065941	104720	104720	593.88	799.92	1203.2	978.66	-3.54E-07	0.00091255	0.12897	0.023327	0.33205	3.0116	335650	351680	1842.5	568.08	653.09	135.36	0.00012474	7.93E-06	0.0053195
198.12	5464.9	1515.6	0.00065981	105130	105130	595.95	800.16	1203.5	976.96	-3.54E-07	0.00090536	0.12878	0.023271	0.34041	2.9376	335840	351890	1841.5	568.87	653.93	135.46	0.00012349	7.94E-06	0.0053468
198.46	5611	1514.7	0.00066022	105540	105540	598.01	800.41	1203.9	975.27	-3.53E-07	0.00089827	0.12859	0.023214	0.34895	2.8658	336020	352100	1840.4	569.66	654.78	135.56	0.00012226	7.96E-06	0.0053742
198.8	5760.3	1513.7	0.00066062	105950	105950	600.08	800.66	1204.3	973.57	-3.53E-07	0.00089127	0.1284	0.023157	0.35766	2.796	336210	352310	1839.3	570.46	655.63	135.65	0.00012105	7.97E-06	0.0054015
199.14	5913	1512.8	0.00066103	106360	106360	602.14	800.91	1204.7	971.88	-3.52E-07	0.00088435	0.12822	0.023101	0.36655	2.7281	336390	352520	1838.3	571.25	656.48	135.75	0.00011986	7.98E-06	0.0054289
199.48	6069	1511.9	0.00066143	106770	106770	604.2	801.17	1205.1	970.18	-3.52E-07	0.00087752	0.12803	0.023044	0.37562	2.6622	336580	352740	1837.2	572.04	657.33	135.84	0.00011868	7.99E-06	0.0054562
199.82	6228.6	1510.9	0.00066184	107180	107180	606.25	801.42	1205.5	968.49	-3.51E-07	0.00087078	0.12784	0.022987	0.38488	2.5982	336760	352950	1836.2	572.83	658.18	135.93	0.00011753	8.01E-06	0.0054836
200.16	6391.6	1510	0.00066224	107590	107590	608.31	801.68	1205.9	966.8	-3.51E-07	0.00086412	0.12765	0.022931	0.39433	2.536	336950	353160	1835.1	573.63	659.03	136.03	0.0001164	8.02E-06	0.0055109
200.5	6558.2	1509.1	0.00066265	108000	108000	610.36	801.94	1206.4	965.11	-3.51E-07	0.00085755	0.12747	0.022874	0.40397	2.4754	337140	353370	1834.1	574.42	659.88	136.12	0.00011528	8.03E-06	0.0055383
200.84	6728.5	1508.2	0.00066306	108410	108410	612.41	802.2	1206.8	963.42	-3.50E-07	0.00085105	0.12728	0.022818	0.4138	2.4166	337320	353580	1833.1	575.21	660.74	136.22	0.00011418	8.05E-06	0.0055657
201.19	6902.4	1507.2	0.00066346	108820	108820	614.45	802.47	1207.2	961.73	-3.50E-07	0.00084463	0.1271	0.022761	0.42383	2.3594	337510	353800	1832.1	576.01	661.59	136.31	0.0001131	8.06E-06	0.005593
201.53	7080.2	1506.3	0.00066387	109230	109240	616.49	802.73	1207.6	960.04	-3.49E-07	0.0008383	0.12691	0.022705	0.43406	2.3038	337700	354010	1831.1	576.8	662.45	136.4	0.00011204	8.07E-06	0.0056204
201.87	7261.7	1505.4	0.00066428	109640	109650	618.53	803	1208	958.35	-3.49E-07	0.00083203	0.12673	0.022649	0.44449	2.2498	337880	354220	1830.1	577.59	663.31	136.5	0.00011099	8.09E-06	0.0056477
202.21	7447.1	1504.5	0.00066469	110050	110060	620.57	803.27	1208.4	956.66	-3.48E-07	0.00082585	0.12654	0.022592	0.45513	2.1972	338070	354430	1829.1	578.39	664.16	136.59	0.00010996	8.10E-06	0.0056751
202.55	7636.5	1503.5	0.0006651	110470	110470	622.6	803.54	1208.9	954.98	-3.48E-07	0.00081974	0.12636	0.022536	0.46598	2.146	338260	354650	1828.1	579.18	665.02	136.68	0.00010895	8.11E-06	0.0057025
202.89	7829.9	1502.6	0.00066552	110880	110880	624.63	803.81	1209.3	953.29	-3.47E-07	0.0008137	0.12617	0.022479	0.47704	2.0963	338440	354860	1827.1	579.97	665.88	136.77	0.00010795	8.13E-06	0.0057298
203.23	8027.4	1501.7	0.00066593	111290	111290	626.66	804.09	1209.7	951.61	-3.47E-07	0.00080773	0.12599	0.022423	0.48831	2.0479	338630	355070	1826.2	580.77	666.74	136.87	0.00010697	8.14E-06	0.0057572
203.57	8229.1	1500.7	0.00066634	111700	111710	628.69	804.36	1210.1	949.93	-3.46E-07	0.00080183	0.1258	0.022367	0.4998	2.0008	338820	355280	1825.2	581.56	667.61	136.96	0.000106	8.15E-06	0.0057846
203.91	8435	1499.8	0.00066676	112110	112120	630.71	804.64	1210.6	948.25	-3.46E-07	0.000796	0.12562	0.022311	0.51152	1.955	339010	355500	1824.3	582.36	668.47	137.05	0.00010505	8.17E-06	0.005812
204.25	8645.1	1498.9	0.00066717	112530	112530	632.73	804.92	1211	946.57	-3.45E-07	0.00079024	0.12543	0.022254	0.52346	1.9104	339190	355710	1823.3	583.15	669.33	137.14	0.00010411	8.18E-06	0.0058393
204.59	8859.7	1497.9	0.00066759	112940	112940	634.75	805.2	1211.4	944.89	-3.45E-07	0.00078455	0.12525	0.022198	0.53563	1.867	339380	355920	1822.4	583.95	670.2	137.23	0.00010319	8.19E-06	0.0058667
204.93	9078.6	1497	0.000668	113350	113360	636.77	805.49	1211.9	943.21	-3.44E-07	0.00077892	0.12507	0.022142	0.54803	1.8247	339570	356140	1821.4	584.74	671.07	137.32	0.00010228	8.21E-06	0.0058941
205.27	9302.1	1496.1	0.00066842	113760	113770	638.78	805.77	1212.3	941.53	-3.44E-07	0.00077336	0.12488	0.022086	0.56067	1.7836	339760	356350	1820.5	585.54	671.93	137.41	0.00010138	8.22E-06	0.0059215
205.61	9530.2	1495.1	0.00066884	114180	114180	640.79	806.06	1212.8	939.85	-3.43E-07	0.00076786	0.1247	0.02203	0.57354	1.7436	339950	356560	1819.6	586.33	672.8	137.5	0.0001005	8.23E-06	0.0059489
205.95	9762.9	1494.2	0.00066926	114590	114600	642.8	806.34	1213.2	938.18	-3.43E-07	0.00076242	0.12452	0.021974	0.58666	1.7046	340140	356780	1818.7	587.13	673.67	137.59	0.000099626	8.24E-06	0.0059763
206.29	10000	1493.3	0.00066967	115000	115010	644.8	806.63	1213.6	936.5	-3.42E-07	0.00075704	0.12434	0.021918	0.60002	1.6666	340320	356990	1817.8	587.93	674.54	137.68	0.00009877	8.26E-06	0.0060036
206.63	10243	1492.3	0.00067009	115420	115420	646.8	806.92	1214.1	934.83	-3.42E-07	0.00075173	0.12415	0.021862	0.61363	1.6296	340510	357200	1816.9	588.72	675.42	137.77	0.000097925	8.27E-06	0.006031
206.98	10490	1491.4	0.00067051	115830	115840	648.8	807.21	1214.5	933.15	-3.41E-07	0.00074647	0.12397	0.021806	0.62749	1.5936	340700	357420	1816	589.52	676.29	137.86	0.000097094	8.28E-06	0.0060584
207.32	10742	1490.5	0.00067094	116240	116250	650.8	807.51	1215	931.48	-3.41E-07	0.00074128	0.12379	0.02175	0.64161	1.5586	340890	357630	1815.1	590.32	677.17	137.95	0.000096274	8.30E-06	0.0060858
207.66	10999	1489.5	0.00067136	116660	116660	652.79	807.8	1215.4	929.81	-3.40E-07	0.00073614	0.12361	0.021694	0.65599	1.5244	341080	357850	1814.2	591.12	678.04	138.03	0.000095466	8.31E-06	0.0061132
208	11261	1488.6	0.00067178	117070	117080	654.79	808.1	1215.9	928.14	-3.40E-07	0.00073106	0.12343	0.021638	0.67063	1.4911	341270	358060	1813.4	591.92	678.92	138.12	0.00009467	8.32E-06	0.0061406
208.34	11528	1487.6	0.0006722	117490	117490	656.77	808.4	1216.4	926.47	-3.39E-07	0.00072603	0.12325	0.021582	0.68553	1.4587	341460	358270	1812.5	592.71	679.8	138.21	0.000093886	8.34E-06	0.006168
208.68	11801	1486.7	0.00067263	117900	117910	658.76	808.7	1216.8	924.8	-3.39E-07	0.00072106	0.12306	0.021526	0.70071	1.4271	341650	358490	1811.6	593.51	680.68	138.3	0.000093113	8.35E-06	0.0061954
209.02	12079	1485.8	0.00067305	118310	118320	660.75	809	1217.3	923.13	-3.38E-07	0.00071614	0.12288	0.021471	0.71616	1.3963	341840	358700	1810.8	594.31	681.57	138.38	0.00009235	8.36E-06	0.0062228
209.36	12362	1484.8	0.00067348	118730	118740	662.73	809.3	1217.7	921.47	-3.38E-07	0.00071128	0.1227	0.021415	0.73189	1.3663	342030	358920	1809.9	595.11	682.45	138.47	0.000091599	8.37E-06	0.0062502
209.7	12651	1483.9	0.00067391	119140	119150	664.71	809.6	1218.2	919.8	-3.37E-07	0.00070646	0.12252	0.021359	0.7479	1.3371	342220	359130	1809.1	595.91	683.33	138.56	0.000090858	8.39E-06	0.0062776
210.04	12946	1482.9	0.00067433	119560	119570	666.68	809.91	1218.7	918.13	-3.37E-07	0.0007017	0.12234	0.021303	0.76419	1.3086	342410	359350	1808.3	596.71	684.22	138.64	0.000090128	8.40E-06	0.0063051
210.38	13246	1482	0.00067476	119970	119980	668.66	810.21	1219.1	916.47	-3.36E-07	0.000697	0.12216	0.021248	0.78077	1.2808	342600	359560	1807.4	597.51	685.11	138.73	0.000089408	8.41E-06	0.0063325
210.72	13552	1481.1	0.00067519	120390	120400	670.63	810.52	1219.6	914.81	-3.36E-07	0.00069234	0.12198	0.021192	0.79765	1.2537	342790	359780	1806.6	598.32	686	138.81	0.000088698	8.43E-06	0.0063599
211.06	13863	1480.1	0.00067562	120800	120810	672.6	810.83	1220.1	913.15	-3.35E-07	0.00068773	0.1218	0.021137	0.81482	1.2273	342980	359990	1805.8	599.12	686.89	138.9	0.000087997	8.44E-06	0.0063873
211.4	14181	1479.2	0.00067605	121220	121230	674.57	811.14	1220.6	911.48	-3.35E-07	0.00068316	0.12162	0.021081	0.83229	1.2015	343170	360210	1805	599.92	687.78	138.98	0.000087306	8.45E-06	0.0064147
211.74	14505	1478.2	0.00067648	121640	121650	676.53	811.45	1221	909.82	-3.34E-07	0.00067865	0.12145	0.021025	0.85006	1.1764	343360	360420	1804.2	600.72	688.68	139.07	0.000086625	8.47E-06	0.0064422
212.08	14834	1477.3	0.00067692	122050	122060	678.5	811.76	1221.5	908.16	-3.34E-07	0.00067419	0.12127	0.02097	0.86815	1.1519	343550	360640	1803.4	601.53	689.57	139.15	0.000085953	8.48E-06	0.0064696
212.42	15170	1476.3	0.00067735	122470	122480	680.46	812.07	1222	906.51	-3.33E-07	0.00066977	0.12109	0.020914	0.88654	1.128	343740	360850	1802.6	602.33	690.47	139.23	0.00008529	8.49E-06	0.006497
212.77	15513	1475.4	0.00067778	122880	122890	682.41	812.39	1222.5	904.85	-3.32E-07	0.00066539	0.12091	0.020859	0.90525	1.1047	343930	361070	1801.8	603.13	691.37	139.32	0.000084636	8.50E-06	0.0065245
213.11	15861	1474.5	0.00067822	123300	123310	684.37	812.7	1223	903.19	-3.32E-07	0.00066106	0.12073	0.020803	0.92429	1.0819	344120	361280	1801.1	603.94	692.27	139.4	0.000083991	8.52E-06	0.0065519
213.45	16216	1473.5	0.00067865	123720	123730	686.32	813.02	1223.5	901.54	-3.31E-07	0.00065678	0.12055	0.020748	0.94364	1.0597	344310	361500	1800.3	604.74	693.17	139.48	0.000083355	8.53E-06	0.0065793
213.79	16578	1472.6	0.00067909	124130	124140	688.27	813.33	1223.9	899.88	-3.31E-07	0.00065254	0.12038	0.020693	0.96332	1.0381	344500	361710	1799.5	605.55	694.08	139.56	0.000082727	8.54E-06	0.0066068
214.13	16946	1471.6	0.00067953	124550	124560	690.22	813.65	1224.4	898.23	-3.30E-07	0.00064834	0.1202	0.020637	0.98334	1.0169	344700	361930	1798.8	606.36	694.98	139.65	0.000082107	8.56E-06	0.0066342
214.47	17321	1470.7	0.00067996	124970	124980	692.17	813.97	1224.9	896.57	-3.30E-07	0.00064418	0.12002	0.020582	1.0037	0.99632	344890	362140	1798	607.16	695.89	139.73	0.000081495	8.57E-06	0.0066617
214.81	17702	1469.7	0.0006804	125380	125400	694.11	814.29	1225.4	894.92	-3.29E-07	0.00064007	0.11984	0.020527	1.0244	0.97619	345080	362360	1797.2	607.97	696.8	139.81	0.000080891	8.58E-06	0.0066891
215.15	18091	1468.8	0.00068084	125800	125810	696.05	814.62	1225.9	893.27	-3.28E-07	0.000636	0.11967	0.020472	1.0454	0.95655	345270	362580	1796.5	608.78	697.71	139.89	0.000080296	8.60E-06	0.0067166
215.49	18487	1467.8	0.00068128	126220	126230	697.99	814.94	1226.4	891.62	-3.28E-07	0.00063196	0.11949	0.020416	1.0668	0.93737	345460	362790	1795.8	609.59	698.63	139.97	0.000079707	8.61E-06	0.0067441
215.83	18889	1466.9	0.00068172	126640	126650	699.93	815.26	1226.9	889.97	-3.27E-07	0.00062797	0.11931	0.020361	1.0886	0.91865	345650	363010	1795	610.4	699.54	140.05	0.000079127	8.62E-06	0.0067715
216.17	19299	1465.9	0.00068217	127050	127070	701.86	815.59	1227.4	888.32	-3.27E-07	0.00062402	0.11914	0.020306	1.1107	0.90037	345850	363220	1794.3	611.21	700.46	140.13	0.000078554	8.63E-06	0.006799
216.51	19717	1465	0.00068261	127470	127490	703.79	815.91	1227.9	886.68	-3.26E-07	0.00062011	0.11896	0.020251	1.1331	0.88252	346040	363440	1793.6	612.02	701.38	140.21	0.000077988	8.65E-06	0.0068265
216.85	20141	1464	0.00068305	127890	127900	705.72	816.24	1228.4	885.03	-3.26E-07	0.00061623	0.11879	0.020196	1.1559	0.86509	346230	363650	1792.9	612.83	702.3	140.29	0.000077429	8.66E-06	0.0068539
217.19	20573	1463.1	0.0006835	128310	128320	707.65	816.57	1228.9	883.38	-3.25E-07	0.0006124	0.11861	0.020141	1.1791	0.84807	346420	363870	1792.2	613.64	703.22	140.37	0.000076877	8.67E-06	0.0068814
217.53	21013	1462.1	0.00068394	128730	128740	709.58	816.9	1229.4	881.74	-3.24E-07	0.0006086	0.11843	0.020086	1.2027	0.83145	346620	364090	1791.5	614.46	704.14	140.45	0.000076333	8.69E-06	0.0069089
217.87	21461	1461.2	0.00068439	129150	129160	711.5	817.23	1229.9	880.09	-3.24E-07	0.00060483	0.11826	0.020031	1.2267	0.81521	346810	364300	1790.8	615.27	705.07	140.53	0.000075795	8.70E-06	0.0069364
218.22	21916	1460.2	0.00068484	129570	129580	713.42	817.56	1230.4	878.45	-3.23E-07	0.00060111	0.11808	0.019976	1.251	0.79935	347000	364520	1790.1	616.08	706	140.6	0.000075263	8.71E-06	0.0069639
218.56	22379	1459.2	0.00068528	129980	130000	715.34	817.89	1231	876.81	-3.23E-07	0.00059742	0.11791	0.019921	1.2757	0.78386	347190	364730	1789.4	616.9	706.93	140.68	0.000074739	8.72E-06	0.0069913
218.9	22850	1458.3	0.00068573	130400	130420	717.26	818.22	1231.5	875.17	-3.22E-07	0.00059376	0.11773	0.019866	1.3009	0.76872	347390	364950	1788.7	617.71	707.86	140.76	0.00007422	8.74E-06	0.0070188
219.24	23329	1457.3	0.00068618	130820	130840	719.17	818.55	1232	873.53	-3.21E-07	0.00059014	0.11756	0.019811	1.3264	0.75393	347580	365170	1788	618.53	708.8	140.84	0.000073708	8.75E-06	0.0070463
219.58	23817	1456.4	0.00068663	131240	131260	721.08	818.89	1232.5	871.89	-3.21E-07	0.00058655	0.11738	0.019756	1.3523	0.73948	347770	365380	1787.3	619.34	709.73	140.91	0.000073202	8.76E-06	0.0070738
219.92	24312	1455.4	0.00068708	131660	131680	722.99	819.22	1233	870.25	-3.20E-07	0.000583	0.11721	0.019701	1.3786	0.72536	347960	365600	1786.7	620.16	710.67	140.99	0.000072703	8.78E-06	0.0071013
220.26	24816	1454.5	0.00068754	132080	132100	724.9	819.56	1233.6	868.61	-3.20E-07	0.00057948	0.11704	0.019646	1.4054	0.71156	348160	365820	1786	620.98	711.61	141.06	0.000072209	8.79E-06	0.0071289
220.6	25329	1453.5	0.00068799	132500	132520	726.81	819.9	1234.1	866.97	-3.19E-07	0.00057599	0.11686	0.019592	1.4325	0.69807	348350	366030	1785.3	621.8	712.56	141.14	0.000071721	8.80E-06	0.0071564
220.94	25851	1452.5	0.00068845	132920	132940	728.71	820.23	1234.6	865.34	-3.18E-07	0.00057254	0.11669	0.019537	1.4601	0.68488	348540	366250	1784.7	622.62	713.5	141.21	0.000071239	8.81E-06	0.0071839
221.28	26381	1451.6	0.0006889	133340	133360	730.61	820.57	1235.1	863.7	-3.18E-07	0.00056912	0.11652	0.019482	1.4881	0.67199	348740	366460	1784	623.44	714.45	141.29	0.000070763	8.83E-06	0.0072114
221.62	26919	1450.6	0.00068936	133760	133780	732.51	820.91	1235.7	862.07	-3.17E-07	0.00056573	0.11634	0.019428	1.5165	0.65939	348930	366680	1783.4	624.26	715.4	141.36	0.000070292	8.84E-06	0.0072389
221.96	27467	1449.7	0.00068981	134180	134200	734.41	821.25	1236.2	860.43	-3.17E-07	0.00056237	0.11617	0.019373	1.5454	0.64707	349120	366900	1782.8	625.08	716.35	141.44	0.000069827	8.85E-06	0.0072665
222.3	28024	1448.7	0.00069027	134600	134620	736.31	821.59	1236.7	858.8	-3.16E-07	0.00055904	0.116	0.019318	1.5747	0.63503	349320	367110	1782.1	625.91	717.31	141.51	0.000069367	8.87E-06	0.007294
222.64	28591	1447.7	0.00069073	135030	135050	738.2	821.94	1237.3	857.17	-3.15E-07	0.00055574	0.11582	0.019264	1.6045	0.62325	349510	367330	1781.5	626.73	718.26	141.58	0.000068912	8.88E-06	0.0073215
222.98	29166	1446.8	0.00069119	135450	135470	740.09	822.28	1237.8	855.54	-3.15E-07	0.00055248	0.11565	0.019209	1.6347	0.61173	349700	367550	1780.9	627.55	719.22	141.65	0.000068463	8.89E-06	0.0073491
223.32	29751	1445.8	0.00069165	135870	135890	741.98	822.62	1238.3	853.91	-3.14E-07	0.00054924	0.11548	0.019155	1.6654	0.60047	349900	367760	1780.3	628.38	720.18	141.73	0.000068019	8.90E-06	0.0073766
223.66	30345	1444.9	0.00069211	136290	136310	743.86	822.97	1238.9	852.28	-3.13E-07	0.00054603	0.11531	0.0191	1.6965	0.58945	350090	367980	1779.6	629.2	721.15	141.8	0.00006758	8.92E-06	0.0074042
224.01	30949	1443.9	0.00069258	136710	136730	745.75	823.31	1239.4	850.65	-3.13E-07	0.00054285	0.11514	0.019046	1.7281	0.57867	350290	368200	1779	630.03	722.11	141.87	0.000067146	8.93E-06	0.0074317
224.35	31563	1442.9	0.00069304	137130	137160	747.63	823.66	1240	849.02	-3.12E-07	0.0005397	0.11496	0.018992	1.7602	0.56813	350480	368410	1778.4	630.86	723.08	141.94	0.000066716	8.94E-06	0.0074593
224.69	32187	1442	0.0006935	137560	137580	749.51	824	1240.5	847.39	-3.11E-07	0.00053657	0.11479	0.018937	1.7927	0.55782	350670	368630	1777.8	631.69	724.05	142.01	0.000066292	8.95E-06	0.0074869
225.03	32820	1441	0.00069397	137980	138000	751.39	824.35	1241.1	845.77	-3.11E-07	0.00053348	0.11462	0.018883	1.8257	0.54773	350870	368840	1777.2	632.52	725.02	142.08	0.000065872	8.97E-06	0.0075144
225.37	33464	1440	0.00069444	138400	138420	753.27	824.7	1241.6	844.14	-3.10E-07	0.00053041	0.11445	0.018829	1.8592	0.53786	351060	369060	1776.6	633.35	726	142.15	0.000065457	8.98E-06	0.007542
225.71	34118	1439	0.0006949	138820	138850	755.14	825.05	1242.2	842.52	-3.09E-07	0.00052737	0.11428	0.018774	1.8932	0.5282	351260	369280	1776.1	634.18	726.98	142.22	0.000065046	8.99E-06	0.0075696
226.05	34783	1438.1	0.00069537	139250	139270	757.01	825.4	1242.7	840.89	-3.09E-07	0.00052435	0.11411	0.01872	1.9277	0.51875	351450	369490	1775.5	635.01	727.96	142.29	0.00006464	9.01E-06	0.0075972
226.39	35458	1437.1	0.00069584	139670	139700	758.89	825.75	1243.3	839.27	-3.08E-07	0.00052136	0.11394	0.018666	1.9627	0.5095	351650	369710	1774.9	635.84	728.94	142.36	0.000064239	9.02E-06	0.0076248
226.73	36143	1436.1	0.00069631	140090	140120	760.75	826.1	1243.8	837.65	-3.07E-07	0.0005184	0.11377	0.018612	1.9982	0.50045	351840	369930	1774.3	636.68	729.93	142.43	0.000063841	9.03E-06	0.0076524
227.07	36839	1435.2	0.00069678	140520	140540	762.62	826.45	1244.4	836.02	-3.07E-07	0.00051546	0.1136	0.018558	2.0342	0.49159	352030	370140	1773.8	637.51	730.91	142.49	0.000063448	9.04E-06	0.00768
227.41	37546	1434.2	0.00069725	140940	140970	764.49	826.8	1244.9	834.4	-3.06E-07	0.00051255	0.11343	0.018503	2.0708	0.48291	352230	370360	1773.2	638.35	731.9	142.56	0.00006306	9.06E-06	0.0077076
227.75	38264	1433.2	0.00069773	141360	141390	766.35	827.16	1245.5	832.78	-3.05E-07	0.00050967	0.11326	0.018449	2.1078	0.47442	352420	370580	1772.6	639.19	732.9	142.63	0.000062675	9.07E-06	0.0077352
228.09	38993	1432.2	0.0006982	141790	141820	768.21	827.51	1246.1	831.16	-3.05E-07	0.00050681	0.11309	0.018395	2.1454	0.46611	352620	370790	1772.1	640.02	733.89	142.69	0.000062294	9.08E-06	0.0077628
228.43	39734	1431.3	0.00069868	142210	142240	770.07	827.86	1246.6	829.55	-3.04E-07	0.00050397	0.11292	0.018341	2.1835	0.45797	352810	371010	1771.5	640.86	734.89	142.76	0.000061918	9.09E-06	0.0077904
228.77	40485	1430.3	0.00069915	142640	142670	771.92	828.22	1247.2	827.93	-3.03E-07	0.00050115	0.11275	0.018287	2.2222	0.45	353010	371230	1771	641.7	735.89	142.83	0.000061545	9.11E-06	0.0078181
229.11	41248	1429.3	0.00069963	143060	143090	773.78	828.58	1247.8	826.31	-3.03E-07	0.00049837	0.11258	0.018233	2.2614	0.4422	353200	371440	1770.4	642.54	736.9	142.89	0.000061177	9.12E-06	0.0078457
229.45	42023	1428.3	0.00070011	143490	143520	775.63	828.93	1248.3	824.69	-3.02E-07	0.0004956	0.11241	0.018179	2.3012	0.43456	353400	371660	1769.9	643.38	737.9	142.96	0.000060812	9.13E-06	0.0078733
229.8	42809	1427.4	0.00070059	143910	143940	777.48	829.29	1248.9	823.08	-3.01E-07	0.00049286	0.11224	0.018126	2.3415	0.42708	353590	371870	1769.4	644.23	738.91	143.02	0.000060451	9.14E-06	0.007901
230.14	43608	1426.4	0.00070107	144340	144370	779.33	829.65	1249.5	821.46	-3.01E-07	0.00049014	0.11208	0.018072	2.3824	0.41975	353790	372090	1768.8	645.07	739.93	143.08	0.000060093	9.16E-06	0.0079286
230.48	44418	1425.4	0.00070155	144760	144790	781.18	830	1250.1	819.85	-3.00E-07	0.00048744	0.11191	0.018018	2.4238	0.41257	353980	372310	1768.3	645.91	740.94	143.15	0.00005974	9.17E-06	0.0079563
230.82	45240	1424.4	0.00070203	145190	145220	783.02	830.36	1250.6	818.24	-2.99E-07	0.00048477	0.11174	0.017964	2.4658	0.40554	354180	372520	1767.8	646.76	741.96	143.21	0.000059389	9.18E-06	0.007984
231.16	46075	1423.5	0.00070252	145610	145650	784.87	830.72	1251.2	816.62	-2.98E-07	0.00048211	0.11157	0.01791	2.5084	0.39865	354370	372740	1767.3	647.61	742.98	143.27	0.000059043	9.20E-06	0.0080116
231.5	46922	1422.5	0.000703	146040	146070	786.71	831.08	1251.8	815.01	-2.98E-07	0.00047948	0.1114	0.017857	2.5516	0.39191	354570	372960	1766.8	648.45	744	143.33	0.0000587	9.21E-06	0.0080393
231.84	47782	1421.5	0.00070349	146470	146500	788.55	831.44	1252.4	813.4	-2.97E-07	0.00047687	0.11124	0.017803	2.5954	0.3853	354760	373170	1766.3	649.3	745.03	143.4	0.00005836	9.22E-06	0.008067
232.18	48654	1420.5	0.00070397	146890	146930	790.39	831.81	1253	811.79	-2.96E-07	0.00047429	0.11107	0.017749	2.6398	0.37882	354960	373390	1765.8	650.15	746.06	143.46	0.000058024	9.23E-06	0.0080947
232.52	49539	1419.5	0.00070446	147320	147350	792.22	832.17	1253.5	810.18	-2.95E-07	0.00047172	0.1109	0.017696	2.6848	0.37247	355150	373600	1765.3	651	747.09	143.52	0.000057691	9.25E-06	0.0081224
232.86	50437	1418.5	0.00070495	147750	147780	794.06	832.53	1254.1	808.57	-2.95E-07	0.00046917	0.11073	0.017642	2.7303	0.36626	355350	373820	1764.8	651.85	748.12	143.58	0.000057361	9.26E-06	0.0081501
233.2	51348	1417.6	0.00070544	148170	148210	795.89	832.89	1254.7	806.96	-2.94E-07	0.00046665	0.11057	0.017589	2.7765	0.36016	355540	374040	1764.3	652.71	749.16	143.64	0.000057035	9.27E-06	0.0081778
233.54	52272	1416.6	0.00070593	148600	148640	797.72	833.26	1255.3	805.35	-2.93E-07	0.00046414	0.1104	0.017535	2.8234	0.35419	355740	374250	1763.8	653.56	750.2	143.7	0.000056711	9.28E-06	0.0082055
233.88	53210	1415.6	0.00070642	149030	149060	799.55	833.62	1255.9	803.75	-2.93E-07	0.00046166	0.11023	0.017482	2.8708	0.34833	355930	374470	1763.3	654.42	751.25	143.76	0.000056391	9.30E-06	0.0082332
234.22	54161	1414.6	0.00070692	149450	149490	801.37	833.99	1256.5	802.14	-2.92E-07	0.00045919	0.11007	0.017428	2.9189	0.3426	356130	374680	1762.8	655.27	752.29	143.81	0.000056074	9.31E-06	0.008261
234.56	55125	1413.6	0.00070741	149880	149920	803.2	834.35	1257.1	800.54	-2.91E-07	0.00045675	0.1099	0.017375	2.9676	0.33697	356320	374900	1762.3	656.13	753.34	143.87	0.00005576	9.32E-06	0.0082887
234.9	56104	1412.6	0.00070791	150310	150350	805.02	834.72	1257.7	798.93	-2.90E-07	0.00045432	0.10973	0.017321	3.017	0.33146	356520	375110	1761.9	656.99	754.4	143.93	0.000055449	9.33E-06	0.0083164
235.25	57096	1411.6	0.0007084	150740	150780	806.84	835.09	1258.3	797.33	-2.89E-07	0.00045191	0.10957	0.017268	3.067	0.32605	356710	375330	1761.4	657.85	755.45	143.99	0.000055142	9.35E-06	0.0083442
235.59	58102	1410.6	0.0007089	151170	151210	808.66	835.45	1258.9	795.72	-2.89E-07	0.00044953	0.1094	0.017215	3.1177	0.32075	356910	375550	1760.9	658.71	756.51	144.04	0.000054836	9.36E-06	0.0083719
235.93	59123	1409.6	0.0007094	151600	151640	810.48	835.82	1259.5	794.12	-2.88E-07	0.00044716	0.10924	0.017161	3.169	0.31556	357110	375760	1760.5	659.57	757.57	144.1	0.000054534	9.37E-06	0.0083997
236.27	60158	1408.7	0.0007099	152020	152070	812.3	836.19	1260.1	792.52	-2.87E-07	0.00044481	0.10907	0.017108	3.221	0.31046	357300	375980	1760	660.43	758.64	144.16	0.000054235	9.38E-06	0.0084275
236.61	61207	1407.7	0.0007104	152450	152500	814.11	836.56	1260.7	790.91	-2.86E-07	0.00044247	0.10891	0.017055	3.2737	0.30547	357500	376190	1759.5	661.29	759.71	144.21	0.000053938	9.40E-06	0.0084553
236.95	62271	1406.7	0.0007109	152880	152930	815.92	836.93	1261.4	789.31	-2.86E-07	0.00044016	0.10874	0.017002	3.3271	0.30057	357690	376410	1759.1	662.16	760.78	144.27	0.000053645	9.41E-06	0.0084831
237.29	63350	1405.7	0.00071141	153310	153360	817.73	837.3	1262	787.71	-2.85E-07	0.00043786	0.10858	0.016949	3.3811	0.29576	357890	376620	1758.6	663.02	761.85	144.32	0.000053354	9.42E-06	0.0085109
237.63	64443	1404.7	0.00071191	153740	153790	819.54	837.67	1262.6	786.11	-2.84E-07	0.00043558	0.10841	0.016896	3.4359	0.29105	358080	376840	1758.2	663.89	762.93	144.37	0.000053065	9.43E-06	0.0085387
237.97	65552	1403.7	0.00071242	154170	154220	821.35	838.04	1263.2	784.51	-2.83E-07	0.00043332	0.10825	0.016842	3.4913	0.28642	358280	377050	1757.8	664.76	764.01	144.43	0.00005278	9.45E-06	0.0085665
238.31	66676	1402.7	0.00071292	154600	154650	823.15	838.41	1263.8	782.92	-2.82E-07	0.00043108	0.10808	0.016789	3.5475	0.28189	358470	377270	1757.3	665.63	765.1	144.48	0.000052496	9.46E-06	0.0085943
238.65	67815	1401.7	0.00071343	155030	155080	824.96	838.78	1264.5	781.32	-2.82E-07	0.00042885	0.10792	0.016736	3.6044	0.27744	358670	377480	1756.9	666.5	766.18	144.53	0.000052216	9.47E-06	0.0086221
238.99	68970	1400.7	0.00071394	155460	155510	826.76	839.16	1265.1	779.72	-2.81E-07	0.00042664	0.10775	0.016683	3.662	0.27308	358870	377700	1756.5	667.37	767.27	144.58	0.000051938	9.48E-06	0.00865
239.33	70141	1399.7	0.00071445	155890	155940	828.56	839.53	1265.7	778.12	-0.00000028	0.00042445	0.10759	0.016631	3.7203	0.2688	359060	377910	1756	668.24	768.37	144.64	0.000051662	9.50E-06	0.0086778
239.67	71327	1398.7	0.00071496	156320	156370	830.36	839.91	1266.3	776.53	-2.79E-07	0.00042227	0.10743	0.016578	3.7793	0.2646	359260	378130	1755.6	669.12	769.47	144.69	0.000051389	9.51E-06	0.0087057
240.01	72529	1397.7	0.00071547	156750	156800	832.16	840.28	1267	774.93	-2.78E-07	0.00042011	0.10726	0.016525	3.8391	0.26048	359450	378340	1755.2	669.99	770.57	144.74	0.000051119	9.52E-06	0.0087335
240.35	73748	1396.7	0.00071599	157180	157240	833.95	840.65	1267.6	773.34	-2.78E-07	0.00041797	0.1071	0.016472	3.8997	0.25643	359650	378560	1754.8	670.87	771.67	144.79	0.000050851	9.53E-06	0.0087614
240.69	74982	1395.7	0.0007165	157620	157670	835.75	841.03	1268.2	771.74	-2.77E-07	0.00041584	0.10694	0.016419	3.961	0.25246	359840	378770	1754.4	671.74	772.78	144.84	0.000050585	9.55E-06	0.0087893
241.04	76233	1394.7	0.00071702	158050	158100	837.54	841.41	1268.9	770.15	-2.76E-07	0.00041373	0.10677	0.016366	4.0231	0.24857	360040	378990	1753.9	672.62	773.89	144.88	0.000050321	9.56E-06	0.0088172
241.38	77501	1393.7	0.00071754	158480	158530	839.33	841.78	1269.5	768.55	-2.75E-07	0.00041163	0.10661	0.016314	4.0859	0.24474	360230	379200	1753.5	673.5	775.01	144.93	0.00005006	9.57E-06	0.0088451
241.72	78785	1392.6	0.00071806	158910	158970	841.12	842.16	1270.2	766.96	-2.74E-07	0.00040955	0.10645	0.016261	4.1495	0.24099	360430	379420	1753.1	674.38	776.12	144.98	0.000049801	9.58E-06	0.008873
242.06	80087	1391.6	0.00071858	159340	159400	842.9	842.54	1270.8	765.37	-2.73E-07	0.00040748	0.10628	0.016208	4.2139	0.23731	360630	379630	1752.7	675.26	777.24	145.03	0.000049545	9.60E-06	0.0089009
242.4	81405	1390.6	0.0007191	159780	159830	844.69	842.92	1271.4	763.78	-2.72E-07	0.00040543	0.10612	0.016156	4.2791	0.23369	360820	379850	1752.3	676.15	778.37	145.07	0.00004929	9.61E-06	0.0089289
242.74	82741	1389.6	0.00071962	160210	160270	846.47	843.29	1272.1	762.19	-2.72E-07	0.00040339	0.10596	0.016103	4.3451	0.23015	361020	380060	1751.9	677.03	779.5	145.12	0.000049038	9.62E-06	0.0089568
243.08	84094	1388.6	0.00072014	160640	160700	848.25	843.67	1272.7	760.6	-2.71E-07	0.00040137	0.1058	0.016051	4.4118	0.22666	361210	380270	1751.6	677.92	780.63	145.17	0.000048788	9.63E-06	0.0089847
243.42	85464	1387.6	0.00072067	161070	161140	850.03	844.05	1273.4	759.01	-2.70E-07	0.00039937	0.10564	0.015998	4.4794	0.22324	361410	380490	1751.2	678.8	781.77	145.21	0.00004854	9.65E-06	0.0090127
243.76	86852	1386.6	0.00072119	161510	161570	851.81	844.43	1274.1	757.42	-2.69E-07	0.00039737	0.10547	0.015946	4.5478	0.21988	361600	380700	1750.8	679.69	782.91	145.26	0.000048295	9.66E-06	0.0090407
244.1	88258	1385.6	0.00072172	161940	162000	853.59	844.81	1274.7	755.83	-2.68E-07	0.00039539	0.10531	0.015893	4.6171	0.21659	361800	380920	1750.4	680.58	784.05	145.3	0.000048051	9.67E-06	0.0090687
244.44	89682	1384.6	0.00072225	162370	162440	855.37	845.2	1275.4	754.24	-2.67E-07	0.00039343	0.10515	0.015841	4.6871	0.21335	362000	381130	1750	681.47	785.19	145.35	0.000047809	9.68E-06	0.0090966
244.78	91124	1383.5	0.00072278	162810	162870	857.14	845.58	1276	752.65	-2.66E-07	0.00039148	0.10499	0.015788	4.758	0.21017	362190	381340	1749.6	682.36	786.34	145.39	0.00004757	9.70E-06	0.0091247
245.12	92585	1382.5	0.00072331	163240	163310	858.91	845.96	1276.7	751.06	-2.65E-07	0.00038954	0.10483	0.015736	4.8298	0.20705	362390	381560	1749.3	683.25	787.5	145.43	0.000047332	9.71E-06	0.0091527
245.46	94064	1381.5	0.00072385	163680	163740	860.68	846.34	1277.4	749.48	-2.65E-07	0.00038762	0.10467	0.015684	4.9024	0.20398	362580	381770	1748.9	684.15	788.65	145.47	0.000047097	9.72E-06	0.0091807
245.8	95562	1380.5	0.00072438	164110	164180	862.45	846.73	1278	747.89	-2.64E-07	0.00038571	0.10451	0.015632	4.9759	0.20097	362780	381980	1748.5	685.04	789.82	145.51	0.000046863	9.73E-06	0.0092087
246.14	97078	1379.5	0.00072491	164550	164620	864.22	847.11	1278.7	746.31	-2.63E-07	0.00038382	0.10435	0.015579	5.0502	0.19801	362970	382200	1748.2	685.94	790.98	145.56	0.000046631	9.75E-06	0.0092368
246.48	98614	1378.5	0.00072545	164980	165050	865.99	847.49	1279.4	744.72	-2.62E-07	0.00038194	0.10418	0.015527	5.1254	0.19511	363170	382410	1747.8	686.84	792.15	145.6	0.000046402	9.76E-06	0.0092648
246.83	100170	1377.4	0.00072599	165420	165490	867.75	847.88	1280	743.14	-2.61E-07	0.00038007	0.10402	0.015475	5.2015	0.19225	363360	382620	1747.5	687.74	793.32	145.64	0.000046174	9.77E-06	0.0092929
247.17	101740	1376.4	0.00072653	165850	165930	869.51	848.26	1280.7	741.55	-2.60E-07	0.00037821	0.10386	0.015423	5.2785	0.18945	363560	382840	1747.1	688.63	794.5	145.68	0.000045948	9.78E-06	0.009321
247.51	103340	1375.4	0.00072707	166290	166360	871.28	848.65	1281.4	739.97	-2.59E-07	0.00037637	0.1037	0.015371	5.3564	0.18669	363760	383050	1746.7	689.54	795.68	145.72	0.000045724	9.79E-06	0.0093491
247.85	104950	1374.4	0.00072761	166720	166800	873.04	849.04	1282.1	738.38	-2.58E-07	0.00037454	0.10354	0.015319	5.4352	0.18399	363950	383260	1746.4	690.44	796.86	145.75	0.000045501	9.81E-06	0.0093772
248.19	106580	1373.3	0.00072816	167160	167240	874.79	849.42	1282.8	736.8	-2.57E-07	0.00037272	0.10338	0.015267	5.5149	0.18133	364150	383470	1746.1	691.34	798.05	145.79	0.000045281	9.82E-06	0.0094053
248.53	108240	1372.3	0.0007287	167600	167670	876.55	849.81	1283.5	735.22	-2.56E-07	0.00037091	0.10322	0.015215	5.5955	0.17872	364340	383690	1745.7	692.25	799.24	145.83	0.000045062	9.83E-06	0.0094334
248.87	109910	1371.3	0.00072925	168030	168110	878.31	850.2	1284.2	733.64	-2.55E-07	0.00036912	0.10306	0.015163	5.677	0.17615	364540	383900	1745.4	693.15	800.43	145.87	0.000044845	9.84E-06	0.0094616
249.21	111600	1370.2	0.00072979	168470	168550	880.06	850.59	1284.8	732.05	-2.54E-07	0.00036734	0.1029	0.015111	5.7595	0.17363	364730	384110	1745	694.06	801.63	145.9	0.00004463	9.86E-06	0.0094897
249.55	113320	1369.2	0.00073034	168910	168990	881.81	850.97	1285.5	730.47	-2.53E-07	0.00036557	0.10274	0.015059	5.843	0.17115	364930	384320	1744.7	694.97	802.84	145.94	0.000044416	9.87E-06	0.0095179
249.89	115050	1368.2	0.00073089	169340	169430	883.56	851.36	1286.2	728.89	-2.52E-07	0.00036381	0.10259	0.015007	5.9273	0.16871	365120	384530	1744.4	695.88	804.04	145.97	0.000044205	9.88E-06	0.0095461
250.23	116810	1367.2	0.00073145	169780	169870	885.31	851.75	1286.9	727.31	-2.51E-07	0.00036207	0.10243	0.014955	6.0127	0.16631	365320	384750	1744	696.79	805.25	146.01	0.000043995	9.89E-06	0.0095743
250.57	118590	1366.1	0.000732	170220	170310	887.06	852.14	1287.6	725.73	-2.50E-07	0.00036034	0.10227	0.014904	6.099	0.16396	365510	384960	1743.7	697.7	806.47	146.04	0.000043786	9.91E-06	0.0096025
250.91	120380	1365.1	0.00073255	170660	170740	888.81	852.53	1288.3	724.15	-2.49E-07	0.00035861	0.10211	0.014852	6.1863	0.16165	365710	385170	1743.4	698.61	807.69	146.07	0.000043579	9.92E-06	0.0096307
251.25	122200	1364.1	0.00073311	171090	171180	890.55	852.92	1289.1	722.57	-2.48E-07	0.0003569	0.10195	0.0148	6.2746	0.15937	365900	385380	1743.1	699.53	808.91	146.11	0.000043374	9.93E-06	0.0096589
251.59	124040	1363	0.00073367	171530	171620	892.3	853.32	1289.8	720.99	-2.47E-07	0.0003552	0.10179	0.014749	6.3638	0.15714	366100	385590	1742.7	700.44	810.14	146.14	0.000043171	9.94E-06	0.0096872
251.93	125910	1362	0.00073423	171970	172060	894.04	853.71	1290.5	719.42	-2.46E-07	0.00035352	0.10163	0.014697	6.4541	0.15494	366290	385800	1742.4	701.36	811.37	146.17	0.000042969	9.96E-06	0.0097154
252.28	127790	1360.9	0.00073479	172410	172500	895.78	854.1	1291.2	717.84	-2.45E-07	0.00035184	0.10148	0.014645	6.5454	0.15278	366490	386010	1742.1	702.28	812.61	146.2	0.000042768	9.97E-06	0.0097437
252.62	129700	1359.9	0.00073535	172850	172940	897.52	854.49	1291.9	716.26	-2.44E-07	0.00035017	0.10132	0.014594	6.6377	0.15066	366680	386220	1741.8	703.2	813.84	146.23	0.000042569	9.98E-06	0.009772
252.96	131630	1358.9	0.00073591	173290	173390	899.26	854.89	1292.6	714.68	-2.43E-07	0.00034852	0.10116	0.014542	6.731	0.14857	366880	386430	1741.5	704.12	815.09	146.26	0.000042372	9.99E-06	0.0098003
253.3	133580	1357.8	0.00073648	173730	173830	901	855.28	1293.4	713.11	-2.42E-07	0.00034688	0.101	0.014491	6.8253	0.14651	367070	386650	1741.2	705.04	816.34	146.29	0.000042176	1.00E-05	0.0098286
253.64	135550	1356.8	0.00073704	174170	174270	902.73	855.67	1294.1	711.53	-2.41E-07	0.00034524	0.10084	0.01444	6.9207	0.14449	367270	386860	1740.9	705.96	817.59	146.32	0.000041982	1.00E-05	0.009857
253.98	137550	1355.7	0.00073761	174610	174710	904.46	856.07	1294.8	709.95	-2.40E-07	0.00034362	0.10069	0.014388	7.0172	0.14251	367460	387070	1740.6	706.88	818.84	146.35	0.00004179	1.00E-05	0.0098853
254.32	139570	1354.7	0.00073818	175050	175150	906.2	856.47	1295.5	708.38	-2.39E-07	0.00034201	0.10053	0.014337	7.1147	0.14055	367660	387280	1740.3	707.81	820.1	146.38	0.000041598	1.00E-05	0.0099137
254.66	141620	1353.6	0.00073875	175490	175590	907.93	856.86	1296.3	706.8	-2.38E-07	0.00034041	0.10037	0.014286	7.2133	0.13863	367850	387490	1740	708.74	821.37	146.4	0.000041408	1.01E-05	0.0099421
255	143680	1352.6	0.00073932	175930	176030	909.66	857.26	1297	705.23	-2.37E-07	0.00033881	0.10021	0.014234	7.3129	0.13674	368050	387700	1739.7	709.66	822.64	146.43	0.00004122	1.01E-05	0.0099705
255.34	145770	1351.5	0.0007399	176370	176480	911.39	857.65	1297.8	703.65	-2.36E-07	0.00033723	0.10006	0.014183	7.4136	0.13489	368240	387910	1739.4	710.59	823.91	146.46	0.000041033	1.01E-05	0.0099989
255.68	147890	1350.5	0.00074047	176810	176920	913.11	858.05	1298.5	702.08	-2.35E-07	0.00033566	0.0999	0.014132	7.5155	0.13306	368440	388110	1739.1	711.52	825.19	146.48	0.000040848	1.01E-05	0.010027
256.02	150030	1349.4	0.00074105	177250	177360	914.84	858.45	1299.2	700.5	-2.34E-07	0.0003341	0.099743	0.014081	7.6184	0.13126	368630	388320	1738.8	712.45	826.47	146.51	0.000040664	1.01E-05	0.010056
256.36	152190	1348.4	0.00074163	177690	177810	916.56	858.85	1300	698.93	-2.33E-07	0.00033255	0.099587	0.01403	7.7224	0.12949	368830	388530	1738.5	713.39	827.76	146.53	0.000040481	1.01E-05	0.010084
256.7	154370	1347.3	0.00074221	178140	178250	918.28	859.25	1300.7	697.36	-2.32E-07	0.00033101	0.09943	0.013979	7.8276	0.12775	369020	388740	1738.3	714.32	829.05	146.56	0.0000403	1.01E-05	0.010113
257.04	156590	1346.3	0.00074279	178580	178690	920.01	859.65	1301.5	695.78	-2.31E-07	0.00032948	0.099274	0.013928	7.9339	0.12604	369210	388950	1738	715.25	830.34	146.58	0.00004012	1.01E-05	0.010141
257.38	158820	1345.2	0.00074338	179020	179140	921.73	860.04	1302.3	694.21	-2.29E-07	0.00032795	0.099118	0.013877	8.0413	0.12436	369410	389160	1737.7	716.19	831.64	146.6	0.000039941	1.02E-05	0.01017
257.72	161080	1344.2	0.00074396	179460	179580	923.44	860.45	1303	692.64	-2.28E-07	0.00032644	0.098962	0.013826	8.1499	0.1227	369600	389370	1737.4	717.13	832.95	146.62	0.000039764	1.02E-05	0.010198
258.07	163370	1343.1	0.00074455	179910	180030	925.16	860.85	1303.8	691.07	-2.27E-07	0.00032494	0.098806	0.013775	8.2596	0.12107	369800	389580	1737.2	718.07	834.26	146.64	0.000039588	1.02E-05	0.010227
258.41	165680	1342	0.00074514	180350	180470	926.88	861.25	1304.6	689.5	-2.26E-07	0.00032344	0.09865	0.013724	8.3705	0.11947	369990	389780	1736.9	719.01	835.57	146.66	0.000039413	1.02E-05	0.010255
258.75	168020	1341	0.00074573	180790	180920	928.59	861.65	1305.3	687.92	-2.25E-07	0.00032196	0.098494	0.013673	8.4825	0.11789	370190	389990	1736.6	719.95	836.89	146.68	0.00003924	1.02E-05	0.010284
259.09	170380	1339.9	0.00074632	181240	181360	930.31	862.05	1306.1	686.35	-2.24E-07	0.00032048	0.098338	0.013622	8.5958	0.11634	370380	390200	1736.4	720.89	838.21	146.7	0.000039068	1.02E-05	0.010313
259.43	172770	1338.8	0.00074691	181680	181810	932.02	862.45	1306.9	684.78	-2.23E-07	0.00031901	0.098183	0.013571	8.7102	0.11481	370570	390410	1736.1	721.83	839.54	146.72	0.000038897	1.02E-05	0.010341
259.77	175180	1337.8	0.00074751	182120	182250	933.73	862.86	1307.7	683.21	-2.22E-07	0.00031756	0.098027	0.013521	8.8258	0.1133	370770	390620	1735.8	722.78	840.87	146.74	0.000038727	1.02E-05	0.01037
260.11	177620	1336.7	0.0007481	182570	182700	935.44	863.26	1308.4	681.64	-2.20E-07	0.00031611	0.097872	0.01347	8.9427	0.11182	370960	390820	1735.6	723.72	842.21	146.76	0.000038559	1.03E-05	0.010399
260.45	180090	1335.6	0.0007487	183010	183150	937.15	863.66	1309.2	680.07	-2.19E-07	0.00031467	0.097717	0.013419	9.0608	0.11037	371150	391030	1735.3	724.67	843.55	146.77	0.000038392	1.03E-05	0.010427
260.79	182580	1334.6	0.0007493	183460	183590	938.85	864.07	1310	678.5	-0.000000218	0.00031324	0.097562	0.013369	9.1801	0.10893	371350	391240	1735.1	725.62	844.89	146.79	0.000038226	1.03E-05	0.010456
261.13	185100	1333.5	0.0007499	183900	184040	940.56	864.47	1310.8	676.93	-2.17E-07	0.00031181	0.097407	0.013318	9.3006	0.10752	371540	391440	1734.8	726.57	846.24	146.81	0.000038062	1.03E-05	0.010485
261.47	187650	1332.4	0.00075051	184350	184490	942.27	864.88	1311.6	675.36	-2.16E-07	0.0003104	0.097252	0.013268	9.4224	0.10613	371730	391650	1734.6	727.52	847.6	146.82	0.000037898	1.03E-05	0.010513
261.81	190220	1331.4	0.00075111	184790	184940	943.97	865.29	1312.4	673.79	-2.14E-07	0.00030899	0.097098	0.013217	9.5454	0.10476	371930	391860	1734.3	728.47	848.96	146.84	0.000037736	1.03E-05	0.010542
262.15	192820	1330.3	0.00075172	185240	185380	945.67	865.69	1313.2	672.22	-2.13E-07	0.0003076	0.096943	0.013167	9.6697	0.10342	372120	392060	1734.1	729.42	850.32	146.85	0.000037575	1.03E-05	0.010571
262.49	195450	1329.2	0.00075233	185680	185830	947.37	866.1	1314	670.65	-2.12E-07	0.00030621	0.096789	0.013116	9.7953	0.10209	372310	392270	1733.8	730.38	851.69	146.86	0.000037415	1.03E-05	0.0106
262.83	198110	1328.1	0.00075294	186130	186280	949.07	866.51	1314.8	669.09	-2.11E-07	0.00030482	0.096635	0.013066	9.9222	0.10078	372510	392470	1733.6	731.33	853.07	146.87	0.000037257	1.04E-05	0.010629
263.17	200800	1327	0.00075355	186580	186730	950.77	866.91	1315.6	667.52	-2.10E-07	0.00030345	0.09648	0.013016	10.05	0.099499	372700	392680	1733.3	732.29	854.45	146.89	0.000037099	1.04E-05	0.010658
263.51	203510	1326	0.00075417	187020	187180	952.47	867.32	1316.4	665.95	-2.08E-07	0.00030209	0.096326	0.012965	10.18	0.098233	372890	392890	1733.1	733.25	855.83	146.9	0.000036943	1.04E-05	0.010686
263.86	206250	1324.9	0.00075478	187470	187630	954.16	867.73	1317.3	664.38	-2.07E-07	0.00030073	0.096172	0.012915	10.311	0.096987	373090	393090	1732.9	734.2	857.22	146.91	0.000036787	1.04E-05	0.010715
264.2	209020	1323.8	0.0007554	187920	188080	955.86	868.14	1318.1	662.81	-2.06E-07	0.00029938	0.096019	0.012865	10.443	0.09576	373280	393300	1732.6	735.16	858.62	146.92	0.000036633	1.04E-05	0.010744
264.54	211820	1322.7	0.00075602	188370	188530	957.55	868.55	1318.9	661.25	-2.05E-07	0.00029804	0.095865	0.012815	10.576	0.094551	373470	393500	1732.4	736.13	860.02	146.93	0.00003648	1.04E-05	0.010773
264.88	214650	1321.6	0.00075664	188810	188980	959.24	868.96	1319.7	659.68	-2.03E-07	0.00029671	0.095711	0.012765	10.711	0.093361	373660	393700	1732.2	737.09	861.43	146.94	0.000036328	1.04E-05	0.010802
265.22	217510	1320.5	0.00075726	189260	189430	960.93	869.37	1320.6	658.11	-2.02E-07	0.00029538	0.095558	0.012715	10.847	0.092189	373860	393910	1731.9	738.05	862.84	146.94	0.000036177	1.04E-05	0.010831
265.56	220390	1319.5	0.00075789	189710	189880	962.62	869.78	1321.4	656.54	-2.01E-07	0.00029406	0.095404	0.012664	10.985	0.091035	374050	394110	1731.7	739.02	864.25	146.95	0.000036028	1.04E-05	0.01086
265.9	223310	1318.4	0.00075852	190160	190330	964.31	870.2	1322.2	654.98	-1.99E-07	0.00029275	0.095251	0.012614	11.124	0.089898	374240	394320	1731.5	739.98	865.67	146.96	0.000035879	1.05E-05	0.010889
266.24	226260	1317.3	0.00075915	190610	190780	966	870.61	1323.1	653.41	-1.98E-07	0.00029145	0.095098	0.012565	11.264	0.088778	374430	394520	1731.3	740.95	867.1	146.96	0.000035731	1.05E-05	0.010918
266.58	229230	1316.2	0.00075978	191060	191230	967.69	871.02	1323.9	651.84	-1.97E-07	0.00029015	0.094945	0.012515	11.406	0.087675	374630	394720	1731	741.92	868.53	146.97	0.000035585	1.05E-05	0.010947
266.92	232240	1315.1	0.00076041	191510	191680	969.37	871.44	1324.8	650.28	-1.95E-07	0.00028887	0.094792	0.012465	11.549	0.086589	374820	394930	1730.8	742.89	869.97	146.97	0.000035439	1.05E-05	0.010976
267.26	235280	1314	0.00076104	191960	192140	971.06	871.85	1325.6	648.71	-1.94E-07	0.00028758	0.094639	0.012415	11.693	0.085518	375010	395130	1730.6	743.86	871.41	146.98	0.000035295	1.05E-05	0.011006
267.6	238340	1312.9	0.00076168	192410	192590	972.74	872.26	1326.5	647.14	-1.93E-07	0.00028631	0.094486	0.012365	11.839	0.084464	375200	395330	1730.4	744.83	872.86	146.98	0.000035151	1.05E-05	0.011035
267.94	241440	1311.8	0.00076232	192860	193040	974.42	872.68	1327.4	645.58	-1.91E-07	0.00028504	0.094334	0.012315	11.987	0.083425	375390	395540	1730.2	745.8	874.31	146.98	0.000035009	1.05E-05	0.011064
268.28	244570	1310.7	0.00076296	193310	193490	976.1	873.09	1328.2	644.01	-0.00000019	0.00028379	0.094181	0.012266	12.136	0.082402	375580	395740	1729.9	746.78	875.77	146.99	0.000034867	1.05E-05	0.011093
268.62	247730	1309.6	0.0007636	193760	193950	977.78	873.51	1329.1	642.45	-1.89E-07	0.00028253	0.094029	0.012216	12.286	0.081394	375780	395940	1729.7	747.75	877.23	146.99	0.000034727	1.06E-05	0.011122
268.96	250920	1308.5	0.00076425	194210	194400	979.46	873.93	1330	640.88	-1.87E-07	0.00028129	0.093877	0.012166	12.438	0.0804	375970	396140	1729.5	748.73	878.7	146.99	0.000034587	1.06E-05	0.011152
269.31	254150	1307.4	0.00076489	194660	194850	981.14	874.34	1330.8	639.32	-1.86E-07	0.00028005	0.093724	0.012117	12.591	0.079421	376160	396340	1729.3	749.71	880.18	146.99	0.000034449	1.06E-05	0.011181
269.65	257400	1306.3	0.00076554	195110	195310	982.81	874.76	1331.7	637.75	-1.84E-07	0.00027882	0.093572	0.012067	12.746	0.078457	376350	396550	1729.1	750.68	881.66	146.99	0.000034311	1.06E-05	0.01121
269.99	260690	1305.2	0.00076619	195560	195760	984.49	875.18	1332.6	636.18	-1.83E-07	0.00027759	0.09342	0.012018	12.902	0.077506	376540	396750	1728.9	751.66	883.14	146.99	0.000034175	1.06E-05	0.01124
270.33	264010	1304	0.00076684	196020	196220	986.16	875.6	1333.5	634.62	-1.82E-07	0.00027637	0.093268	0.011968	13.06	0.07657	376730	396950	1728.7	752.65	884.64	146.98	0.000034039	1.06E-05	0.011269
270.67	267370	1302.9	0.0007675	196470	196670	987.84	876.02	1334.4	633.05	-1.80E-07	0.00027516	0.093117	0.011919	13.219	0.075647	376920	397150	1728.5	753.63	886.13	146.98	0.000033905	1.06E-05	0.011299
271.01	270750	1301.8	0.00076816	196920	197130	989.51	876.44	1335.3	631.49	-1.79E-07	0.00027396	0.092965	0.011869	13.38	0.074737	377110	397350	1728.3	754.61	887.64	146.98	0.000033771	1.06E-05	0.011328
271.35	274170	1300.7	0.00076881	197370	197580	991.18	876.86	1336.2	629.92	-1.77E-07	0.00027276	0.092813	0.01182	13.543	0.07384	377300	397550	1728.1	755.6	889.15	146.97	0.000033638	1.07E-05	0.011358
271.69	277620	1299.6	0.00076948	197830	198040	992.85	877.28	1337.1	628.36	-1.76E-07	0.00027157	0.092662	0.011771	13.707	0.072957	377490	397750	1727.9	756.58	890.66	146.97	0.000033506	1.07E-05	0.011387
272.03	281110	1298.5	0.00077014	198280	198500	994.52	877.7	1338	626.79	-1.74E-07	0.00027038	0.092511	0.011722	13.872	0.072086	377680	397950	1727.7	757.57	892.19	146.96	0.000033376	1.07E-05	0.011417
272.37	284620	1297.3	0.0007708	198730	198950	996.19	878.12	1338.9	625.23	-1.73E-07	0.0002692	0.092359	0.011672	14.04	0.071227	377870	398150	1727.5	758.56	893.71	146.96	0.000033246	1.07E-05	0.011446
272.71	288180	1296.2	0.00077147	199190	199410	997.85	878.55	1339.9	623.66	-1.71E-07	0.00026803	0.092208	0.011623	14.208	0.070381	378060	398350	1727.3	759.55	895.25	146.95	0.000033117	1.07E-05	0.011476
273.05	291760	1295.1	0.00077214	199640	199870	999.52	878.97	1340.8	622.1	-1.70E-07	0.00026686	0.092057	0.011574	14.379	0.069547	378250	398550	1727.1	760.54	896.79	146.94	0.000032988	1.07E-05	0.011506
273.39	295380	1294	0.00077281	200100	200330	1001.2	879.39	1341.7	620.53	-1.68E-07	0.0002657	0.091906	0.011525	14.551	0.068725	378440	398740	1727	761.53	898.33	146.93	0.000032861	1.07E-05	0.011535
273.73	299040	1292.8	0.00077349	200550	200780	1002.8	879.82	1342.6	618.97	-1.67E-07	0.00026455	0.091755	0.011476	14.724	0.067914	378630	398940	1726.8	762.52	899.88	146.92	0.000032735	1.07E-05	0.011565
274.07	302730	1291.7	0.00077416	201010	201240	1004.5	880.24	1343.6	617.4	-1.65E-07	0.0002634	0.091604	0.011427	14.9	0.067115	378820	399140	1726.6	763.51	901.44	146.91	0.000032609	1.08E-05	0.011595
274.41	306450	1290.6	0.00077484	201460	201700	1006.2	880.67	1344.5	615.84	-1.64E-07	0.00026226	0.091454	0.011378	15.077	0.066327	379010	399340	1726.4	764.51	903.01	146.9	0.000032485	1.08E-05	0.011624
274.75	310210	1289.5	0.00077552	201920	202160	1007.8	881.09	1345.5	614.28	-1.62E-07	0.00026112	0.091303	0.011329	15.255	0.06555	379200	399540	1726.2	765.51	904.58	146.89	0.000032361	1.08E-05	0.011654
275.1	314010	1288.3	0.0007762	202380	202620	1009.5	881.52	1346.4	612.71	-1.61E-07	0.00025999	0.091152	0.01128	15.436	0.064784	379390	399730	1726	766.5	906.15	146.88	0.000032238	1.08E-05	0.011684
275.44	317840	1287.2	0.00077689	202830	203080	1011.2	881.95	1347.4	611.15	-1.59E-07	0.00025887	0.091002	0.011231	15.618	0.064029	379580	399930	1725.8	767.5	907.74	146.87	0.000032116	1.08E-05	0.011714
275.78	321700	1286	0.00077758	203290	203540	1012.8	882.37	1348.3	609.58	-1.57E-07	0.00025775	0.090852	0.011183	15.802	0.063285	379770	400130	1725.7	768.5	909.33	146.85	0.000031995	1.08E-05	0.011744
276.12	325610	1284.9	0.00077827	203750	204000	1014.5	882.8	1349.3	608.02	-1.56E-07	0.00025663	0.090701	0.011134	15.987	0.06255	379960	400320	1725.5	769.5	910.93	146.84	0.000031875	1.08E-05	0.011774
276.46	329550	1283.8	0.00077896	204200	204460	1016.1	883.23	1350.3	606.45	-1.54E-07	0.00025553	0.090551	0.011085	16.174	0.061826	380150	400520	1725.3	770.5	912.53	146.83	0.000031755	1.08E-05	0.011804
276.8	333520	1282.6	0.00077965	204660	204920	1017.8	883.66	1351.2	604.89	-1.53E-07	0.00025443	0.090401	0.011037	16.363	0.061112	380340	400720	1725.1	771.51	914.14	146.81	0.000031637	1.09E-05	0.011834
277.14	337530	1281.5	0.00078035	205120	205380	1019.4	884.09	1352.2	603.32	-0.000000151	0.00025333	0.090251	0.010988	16.554	0.060408	380520	400910	1725	772.51	915.76	146.79	0.000031519	1.09E-05	0.011864
277.48	341580	1280.3	0.00078105	205580	205840	1021.1	884.52	1353.2	601.76	-1.49E-07	0.00025224	0.090101	0.010939	16.747	0.059713	380710	401110	1724.8	773.52	917.38	146.78	0.000031402	1.09E-05	0.011894
277.82	345670	1279.2	0.00078175	206030	206300	1022.7	884.95	1354.2	600.19	-1.48E-07	0.00025115	0.089951	0.010891	16.941	0.059028	380900	401300	1724.6	774.52	919.01	146.76	0.000031286	1.09E-05	0.011924
278.16	349790	1278	0.00078245	206490	206770	1024.4	885.38	1355.2	598.63	-1.46E-07	0.00025008	0.089802	0.010842	17.137	0.058353	381090	401500	1724.5	775.53	920.65	146.74	0.00003117	1.09E-05	0.011955
278.5	353950	1276.9	0.00078316	206950	207230	1026	885.81	1356.2	597.06	-1.44E-07	0.000249	0.089652	0.010794	17.335	0.057687	381270	401690	1724.3	776.54	922.29	146.72	0.000031056	1.09E-05	0.011985
278.84	358150	1275.7	0.00078387	207410	207690	1027.7	886.25	1357.2	595.5	-1.43E-07	0.00024793	0.089502	0.010746	17.535	0.057029	381460	401890	1724.1	777.55	923.94	146.7	0.000030942	1.09E-05	0.012015
279.18	362390	1274.6	0.00078458	207870	208160	1029.3	886.68	1358.2	593.93	-1.41E-07	0.00024687	0.089353	0.010697	17.736	0.056381	381650	402080	1724	778.56	925.6	146.68	0.000030829	1.10E-05	0.012045
279.52	366660	1273.4	0.00078529	208330	208620	1031	887.11	1359.2	592.37	-1.39E-07	0.00024581	0.089204	0.010649	17.94	0.055742	381840	402270	1723.8	779.57	927.27	146.66	0.000030717	1.10E-05	0.012076
279.86	370970	1272.3	0.00078601	208790	209080	1032.6	887.55	1360.2	590.8	-1.37E-07	0.00024476	0.089054	0.010601	18.145	0.055111	382020	402470	1723.6	780.59	928.94	146.64	0.000030605	1.10E-05	0.012106
280.2	375320	1271.1	0.00078673	209250	209550	1034.3	887.98	1361.3	589.23	-1.36E-07	0.00024371	0.088905	0.010553	18.353	0.054488	382210	402660	1723.5	781.6	930.62	146.61	0.000030494	1.10E-05	0.012137
280.54	379720	1269.9	0.00078745	209710	210010	1035.9	888.42	1362.3	587.67	-1.34E-07	0.00024267	0.088756	0.010504	18.562	0.053874	382400	402850	1723.3	782.62	932.31	146.59	0.000030385	1.10E-05	0.012167
280.89	384150	1268.8	0.00078817	210170	210480	1037.6	888.86	1363.3	586.1	-1.32E-07	0.00024163	0.088607	0.010456	18.773	0.053269	382580	403050	1723.1	783.63	934	146.57	0.000030275	1.10E-05	0.012198
281.23	388610	1267.6	0.0007889	210640	210940	1039.2	889.29	1364.4	584.54	-1.30E-07	0.0002406	0.088458	0.010408	18.986	0.052671	382770	403240	1723	784.65	935.7	146.54	0.000030167	1.10E-05	0.012228
281.57	393120	1266.4	0.00078963	211100	211410	1040.8	889.73	1365.4	582.97	-1.29E-07	0.00023957	0.088309	0.01036	19.201	0.052081	382960	403430	1722.8	785.67	937.41	146.51	0.000030059	1.10E-05	0.012259
281.91	397670	1265.3	0.00079036	211560	211870	1042.5	890.17	1366.5	581.41	-1.27E-07	0.00023855	0.08816	0.010312	19.418	0.0515	383140	403620	1722.7	786.69	939.13	146.49	0.000029953	1.11E-05	0.01229
282.25	402260	1264.1	0.00079109	212020	212340	1044.1	890.61	1367.5	579.84	-1.25E-07	0.00023754	0.088011	0.010264	19.636	0.050926	383330	403810	1722.5	787.71	940.86	146.46	0.000029846	1.11E-05	0.01232
282.59	406890	1262.9	0.00079183	212480	212810	1045.8	891.05	1368.6	578.27	-1.23E-07	0.00023652	0.087862	0.010216	19.857	0.050359	383510	404000	1722.4	788.73	942.59	146.43	0.000029741	1.11E-05	0.012351
282.93	411560	1261.7	0.00079257	212950	213270	1047.4	891.49	1369.7	576.71	-1.21E-07	0.00023552	0.087714	0.010169	20.08	0.0498	383700	404190	1722.2	789.76	944.33	146.4	0.000029636	1.11E-05	0.012382
283.27	416270	1260.5	0.00079331	213410	213740	1049	891.93	1370.8	575.14	-1.19E-07	0.00023451	0.087565	0.010121	20.305	0.049249	383880	404390	1722.1	790.78	946.08	146.37	0.000029532	1.11E-05	0.012413
283.61	421020	1259.4	0.00079405	213880	214210	1050.7	892.37	1371.8	573.57	-1.17E-07	0.00023352	0.087417	0.010073	20.532	0.048704	384070	404570	1721.9	791.81	947.83	146.34	0.000029429	1.11E-05	0.012444
283.95	425810	1258.2	0.0007948	214340	214680	1052.3	892.81	1372.9	572.01	-1.16E-07	0.00023252	0.087268	0.010025	20.761	0.048167	384250	404760	1721.8	792.84	949.6	146.31	0.000029327	1.11E-05	0.012475
284.29	430650	1257	0.00079555	214800	215150	1054	893.25	1374	570.44	-1.14E-07	0.00023154	0.08712	0.0099777	20.992	0.047637	384440	404950	1721.6	793.86	951.37	146.28	0.000029225	1.11E-05	0.012506
284.63	435520	1255.8	0.0007963	215270	215620	1055.6	893.7	1375.1	568.87	-1.12E-07	0.00023055	0.086972	0.0099301	21.225	0.047114	384620	405140	1721.5	794.89	953.15	146.24	0.000029124	1.12E-05	0.012537
284.97	440440	1254.6	0.00079706	215730	216080	1057.2	894.14	1376.2	567.31	-1.10E-07	0.00022957	0.086824	0.0098826	21.46	0.046598	384810	405330	1721.3	795.92	954.94	146.21	0.000029023	1.12E-05	0.012568
285.31	445400	1253.4	0.00079782	216200	216550	1058.9	894.59	1377.3	565.74	-1.08E-07	0.0002286	0.086675	0.0098351	21.698	0.046088	384990	405520	1721.2	796.96	956.74	146.18	0.000028924	1.12E-05	0.012599
285.65	450400	1252.2	0.00079858	216660	217020	1060.5	895.03	1378.5	564.17	-1.06E-07	0.00022763	0.086527	0.0097876	21.937	0.045585	385180	405710	1721	797.99	958.55	146.14	0.000028825	1.12E-05	0.012631
285.99	455450	1251	0.00079934	217130	217490	1062.1	895.48	1379.6	562.6	-1.04E-07	0.00022666	0.086379	0.0097402	22.179	0.045088	385360	405890	1720.9	799.02	960.36	146.1	0.000028726	1.12E-05	0.012662
286.34	460530	1249.8	0.00080011	217600	217970	1063.8	895.92	1380.7	561.03	-1.02E-07	0.0002257	0.086231	0.0096929	22.423	0.044598	385540	406080	1720.7	800.06	962.19	146.07	0.000028629	1.12E-05	0.012693
286.68	465660	1248.6	0.00080088	218060	218440	1065.4	896.37	1381.9	559.47	-9.97E-08	0.00022475	0.086084	0.0096455	22.668	0.044114	385730	406270	1720.6	801.1	964.02	146.03	0.000028532	1.12E-05	0.012725
287.02	470840	1247.4	0.00080166	218530	218910	1067	896.82	1383	557.9	-9.77E-08	0.00022379	0.085936	0.0095983	22.917	0.043637	385910	406460	1720.5	802.13	965.86	145.99	0.000028436	1.12E-05	0.012756
287.36	476060	1246.2	0.00080243	219000	219380	1068.6	897.27	1384.2	556.33	-9.56E-08	0.00022285	0.085788	0.0095511	23.167	0.043165	386090	406640	1720.3	803.17	967.71	145.95	0.00002834	1.13E-05	0.012788
287.7	481320	1245	0.00080321	219470	219850	1070.3	897.72	1385.3	554.76	-9.35E-08	0.0002219	0.08564	0.0095039	23.419	0.042699	386270	406830	1720.2	804.21	969.57	145.91	0.000028245	1.13E-05	0.012819
288.04	486620	1243.8	0.00080399	219930	220330	1071.9	898.17	1386.5	553.19	-9.14E-08	0.00022097	0.085493	0.0094568	23.674	0.04224	386460	407010	1720	805.25	971.44	145.87	0.000028151	1.13E-05	0.012851
288.38	491970	1242.6	0.00080478	220400	220800	1073.5	898.62	1387.7	551.62	-8.93E-08	0.00022003	0.085345	0.0094097	23.931	0.041786	386640	407200	1719.9	806.3	973.32	145.83	0.000028057	1.13E-05	0.012883
288.72	497370	1241.4	0.00080556	220870	221270	1075.2	899.07	1388.8	550.05	-8.72E-08	0.0002191	0.085198	0.0093627	24.191	0.041338	386820	407380	1719.8	807.34	975.21	145.78	0.000027964	1.13E-05	0.012915
289.06	502810	1240.1	0.00080636	221340	221750	1076.8	899.52	1390	548.48	-8.50E-08	0.00021817	0.08505	0.0093157	24.452	0.040896	387000	407570	1719.6	808.39	977.1	145.74	0.000027872	1.13E-05	0.012947
289.4	508290	1238.9	0.00080715	221810	222220	1078.4	899.97	1391.2	546.91	-8.29E-08	0.00021725	0.084903	0.0092688	24.716	0.040459	387190	407750	1719.5	809.43	979.01	145.7	0.00002778	1.13E-05	0.012978
289.74	513820	1237.7	0.00080795	222280	222690	1080	900.43	1392.4	545.34	-8.07E-08	0.00021633	0.084756	0.0092219	24.983	0.040028	387370	407930	1719.4	810.48	980.92	145.65	0.000027689	1.14E-05	0.01301
290.08	519390	1236.5	0.00080875	222750	223170	1081.6	900.88	1393.6	543.77	-7.85E-08	0.00021542	0.084608	0.0091751	25.251	0.039602	387550	408120	1719.2	811.53	982.85	145.6	0.000027599	1.14E-05	0.013043
290.42	525020	1235.3	0.00080955	223220	223650	1083.3	901.34	1394.8	542.2	-7.63E-08	0.00021451	0.084461	0.0091283	25.522	0.039181	387730	408300	1719.1	812.58	984.79	145.56	0.000027509	1.14E-05	0.013075
290.76	530680	1234	0.00081036	223690	224120	1084.9	901.79	1396.1	540.63	-7.40E-08	0.0002136	0.084314	0.0090815	25.796	0.038766	387910	408480	1719	813.63	986.73	145.51	0.00002742	1.14E-05	0.013107
291.1	536390	1232.8	0.00081117	224160	224600	1086.5	902.25	1397.3	539.06	-7.18E-08	0.0002127	0.084167	0.0090349	26.071	0.038356	388090	408660	1718.8	814.68	988.69	145.46	0.000027332	1.14E-05	0.013139
291.44	542150	1231.6	0.00081198	224630	225070	1088.1	902.71	1398.5	537.48	-6.95E-08	0.0002118	0.08402	0.0089882	26.35	0.037951	388270	408850	1718.7	815.73	990.65	145.41	0.000027244	1.14E-05	0.013172
291.78	547960	1230.3	0.0008128	225110	225550	1089.8	903.16	1399.8	535.91	-6.72E-08	0.00021091	0.083873	0.0089417	26.63	0.037551	388450	409030	1718.6	816.79	992.63	145.36	0.000027156	1.14E-05	0.013204
292.13	553810	1229.1	0.00081362	225580	226030	1091.4	903.62	1401	534.34	-6.49E-08	0.00021002	0.083726	0.0088951	26.914	0.037156	388630	409210	1718.4	817.84	994.62	145.31	0.00002707	1.14E-05	0.013236
292.47	559710	1227.8	0.00081444	226050	226510	1093	904.08	1402.3	532.77	-6.25E-08	0.00020913	0.083579	0.0088486	27.199	0.036766	388810	409390	1718.3	818.9	996.62	145.26	0.000026984	1.15E-05	0.013269
292.81	565660	1226.6	0.00081527	226520	226990	1094.6	904.54	1403.6	531.19	-6.02E-08	0.00020825	0.083432	0.0088022	27.487	0.036381	388990	409570	1718.2	819.96	998.62	145.2	0.000026898	1.15E-05	0.013302
293.15	571660	1225.3	0.0008161	227000	227460	1096.2	905	1404.8	529.62	-5.78E-08	0.00020737	0.083285	0.0087558	27.778	0.036	389170	409750	1718	821.02	1000.6	145.15	0.000026814	1.15E-05	0.013334
293.49	577700	1224.1	0.00081693	227470	227940	1097.8	905.46	1406.1	528.05	-5.54E-08	0.0002065	0.083139	0.0087095	28.071	0.035624	389350	409930	1717.9	822.08	1002.7	145.09	0.000026729	1.15E-05	0.013367
293.83	583790	1222.8	0.00081777	227950	228420	1099.5	905.93	1407.4	526.47	-5.30E-08	0.00020563	0.082992	0.0086632	28.367	0.035253	389520	410100	1717.8	823.14	1004.7	145.04	0.000026646	1.15E-05	0.0134
294.17	589930	1221.6	0.00081861	228420	228900	1101.1	906.39	1408.7	524.9	-5.05E-08	0.00020476	0.082845	0.008617	28.665	0.034886	389700	410280	1717.7	824.21	1006.8	144.98	0.000026563	1.15E-05	0.013433
294.51	596120	1220.3	0.00081945	228890	229380	1102.7	906.85	1410	523.32	-4.81E-08	0.0002039	0.082699	0.0085708	28.966	0.034523	389880	410460	1717.5	825.27	1008.8	144.93	0.00002648	1.15E-05	0.013466
294.85	602360	1219.1	0.0008203	229370	229860	1104.3	907.32	1411.4	521.75	-4.56E-08	0.00020304	0.082552	0.0085247	29.269	0.034165	390060	410640	1717.4	826.34	1010.9	144.87	0.000026398	1.16E-05	0.013499
295.19	608650	1217.8	0.00082115	229850	230350	1105.9	907.78	1412.7	520.17	-4.31E-08	0.00020218	0.082406	0.0084786	29.576	0.033812	390240	410820	1717.3	827.41	1013	144.81	0.000026317	1.16E-05	0.013532
295.53	614980	1216.5	0.000822	230320	230830	1107.5	908.25	1414	518.6	-4.06E-08	0.00020133	0.082259	0.0084326	29.884	0.033462	390410	410990	1717.2	828.47	1015.1	144.75	0.000026237	1.16E-05	0.013566
295.87	621370	1215.3	0.00082286	230800	231310	1109.1	908.72	1415.4	517.02	-3.80E-08	0.00020048	0.082113	0.0083866	30.196	0.033117	390590	411170	1717	829.54	1017.2	144.69	0.000026156	1.16E-05	0.013599
296.21	627810	1214	0.00082372	231270	231790	1110.8	909.19	1416.7	515.45	-3.55E-08	0.00019963	0.081966	0.0083407	30.51	0.032776	390770	411340	1716.9	830.62	1019.3	144.63	0.000026077	1.16E-05	0.013633
296.55	634290	1212.7	0.00082459	231750	232280	1112.4	909.66	1418.1	513.87	-3.29E-08	0.00019879	0.08182	0.0082949	30.827	0.032439	390940	411520	1716.8	831.69	1021.5	144.56	0.000025998	1.16E-05	0.013666
296.89	640830	1211.4	0.00082546	232230	232760	1114	910.12	1419.5	512.29	-3.03E-08	0.00019795	0.081674	0.008249	31.147	0.032106	391120	411690	1716.7	832.76	1023.6	144.5	0.000025919	1.16E-05	0.0137
297.23	647420	1210.2	0.00082633	232710	233240	1115.6	910.6	1420.8	510.71	-2.76E-08	0.00019712	0.081527	0.0082033	31.469	0.031777	391290	411870	1716.6	833.84	1025.8	144.43	0.000025842	1.17E-05	0.013734
297.57	654060	1208.9	0.00082721	233190	233730	1117.2	911.07	1422.2	509.14	-2.49E-08	0.00019628	0.081381	0.0081576	31.794	0.031452	391470	412040	1716.4	834.91	1027.9	144.37	0.000025764	1.17E-05	0.013767
297.92	660750	1207.6	0.00082809	233660	234210	1118.8	911.54	1423.6	507.56	-2.23E-08	0.00019545	0.081235	0.0081119	32.123	0.031131	391650	412210	1716.3	835.99	1030.1	144.3	0.000025688	1.17E-05	0.013801
298.26	667490	1206.3	0.00082897	234140	234700	1120.4	912.01	1425.1	505.98	-1.96E-08	0.00019463	0.081089	0.0080663	32.453	0.030813	391820	412390	1716.2	837.07	1032.3	144.24	0.000025611	1.17E-05	0.013835
298.6	674280	1205	0.00082986	234620	235180	1122	912.49	1426.5	504.4	-1.68E-08	0.00019381	0.080943	0.0080208	32.787	0.0305	391990	412560	1716.1	838.15	1034.5	144.17	0.000025536	1.17E-05	0.013869
298.94	681130	1203.7	0.00083076	235100	235670	1123.6	912.96	1427.9	502.82	-1.41E-08	0.00019299	0.080797	0.0079753	33.124	0.03019	392170	412730	1715.9	839.23	1036.8	144.1	0.000025461	1.17E-05	0.013904
299.28	688020	1202.4	0.00083165	235580	236160	1125.2	913.44	1429.3	501.24	-1.13E-08	0.00019217	0.080651	0.0079298	33.463	0.029883	392340	412900	1715.8	840.32	1039	144.03	0.000025386	1.17E-05	0.013938
299.62	694980	1201.1	0.00083255	236060	236640	1126.9	913.91	1430.8	499.66	-8.45E-09	0.00019136	0.080505	0.0078844	33.806	0.029581	392520	413070	1715.7	841.4	1041.3	143.96	0.000025312	1.18E-05	0.013972
299.96	701980	1199.8	0.00083346	236550	237130	1128.5	914.39	1432.3	498.08	-5.62E-09	0.00019055	0.080358	0.0078391	34.151	0.029281	392690	413250	1715.6	842.49	1043.5	143.88	0.000025239	1.18E-05	0.014007
300.3	709030	1198.5	0.00083436	237030	237620	1130.1	914.87	1433.7	496.5	-2.75E-09	0.00018975	0.080213	0.0077938	34.5	0.028986	392860	413420	1715.5	843.58	1045.8	143.81	0.000025166	1.18E-05	0.014042
300.64	716140	1197.2	0.00083528	237510	238110	1131.7	915.35	1435.2	494.91	1.41E-10	0.00018894	0.080067	0.0077486	34.851	0.028694	393040	413580	1715.4	844.66	1048.1	143.74	0.000025093	1.18E-05	0.014076
300.98	723310	1195.9	0.00083619	237990	238600	1133.3	915.83	1436.7	493.33	3.06E-09	0.00018814	0.079921	0.0077034	35.206	0.028405	393210	413750	1715.2	845.76	1050.4	143.66	0.000025022	1.18E-05	0.014111
301.32	730520	1194.6	0.00083712	238470	239090	1134.9	916.31	1438.2	491.75	6.00E-09	0.00018735	0.079775	0.0076583	35.563	0.028119	393380	413920	1715.1	846.85	1052.7	143.59	0.00002495	1.18E-05	0.014146
301.66	737790	1193.3	0.00083804	238960	239580	1136.5	916.79	1439.7	490.16	8.98E-09	0.00018656	0.079629	0.0076132	35.924	0.027837	393550	414090	1715	847.94	1055.1	143.51	0.000024879	1.18E-05	0.014181
302	745120	1191.9	0.00083897	239440	240070	1138.1	917.27	1441.3	488.58	1.20E-08	0.00018577	0.079483	0.0075682	36.287	0.027558	393720	414260	1714.9	849.04	1057.4	143.43	0.000024809	1.19E-05	0.014217
302.34	752500	1190.6	0.0008399	239930	240560	1139.7	917.76	1442.8	487	1.50E-08	0.00018498	0.079337	0.0075233	36.654	0.027282	393900	414430	1714.8	850.13	1059.8	143.35	0.000024739	1.19E-05	0.014252
302.68	759930	1189.3	0.00084084	240410	241050	1141.3	918.24	1444.3	485.41	1.81E-08	0.00018419	0.079191	0.0074784	37.024	0.02701	394070	414590	1714.7	851.23	1062.2	143.28	0.00002467	1.19E-05	0.014287
303.02	767420	1188	0.00084178	240900	241540	1142.9	918.73	1445.9	483.83	2.12E-08	0.00018341	0.079046	0.0074335	37.397	0.02674	394240	414760	1714.5	852.33	1064.6	143.19	0.000024601	1.19E-05	0.014323
303.37	774970	1186.6	0.00084273	241380	242030	1144.5	919.21	1447.5	482.24	2.43E-08	0.00018263	0.0789	0.0073887	37.773	0.026474	394410	414920	1714.4	853.43	1067	143.11	0.000024533	1.19E-05	0.014359
303.71	782570	1185.3	0.00084368	241870	242530	1146.1	919.7	1449.1	480.65	2.74E-08	0.00018186	0.078754	0.007344	38.153	0.02621	394580	415090	1714.3	854.53	1069.4	143.03	0.000024465	1.19E-05	0.014394
304.05	790230	1183.9	0.00084464	242350	243020	1147.7	920.19	1450.6	479.07	3.06E-08	0.00018109	0.078608	0.0072993	38.536	0.02595	394750	415250	1714.2	855.64	1071.9	142.95	0.000024398	1.19E-05	0.01443
304.39	797940	1182.6	0.0008456	242840	243510	1149.3	920.68	1452.3	477.48	3.38E-08	0.00018032	0.078463	0.0072547	38.922	0.025692	394920	415420	1714.1	856.74	1074.4	142.86	0.000024331	1.20E-05	0.014466
304.73	805710	1181.2	0.00084656	243330	244010	1150.9	921.17	1453.9	475.89	3.70E-08	0.00017955	0.078317	0.0072102	39.311	0.025438	395080	415580	1714	857.85	1076.9	142.78	0.000024265	1.20E-05	0.014503
305.07	813540	1179.9	0.00084753	243810	244500	1152.5	921.66	1455.5	474.3	4.03E-08	0.00017879	0.078171	0.0071657	39.704	0.025186	395250	415740	1713.8	858.96	1079.4	142.69	0.000024199	1.20E-05	0.014539
305.41	821420	1178.5	0.00084851	244300	245000	1154.1	922.15	1457.2	472.71	4.36E-08	0.00017803	0.078026	0.0071212	40.1	0.024937	395420	415900	1713.7	860.07	1081.9	142.6	0.000024134	1.20E-05	0.014575
305.75	829360	1177.2	0.00084949	244790	245500	1155.7	922.65	1458.8	471.12	4.70E-08	0.00017727	0.07788	0.0070768	40.5	0.024691	395590	416070	1713.6	861.18	1084.4	142.51	0.000024069	1.20E-05	0.014612
306.09	837360	1175.8	0.00085047	245280	245990	1157.3	923.14	1460.5	469.53	5.03E-08	0.00017651	0.077734	0.0070325	40.903	0.024448	395760	416230	1713.5	862.29	1087	142.43	0.000024005	1.20E-05	0.014649
306.43	845420	1174.5	0.00085146	245770	246490	1158.9	923.63	1462.2	467.94	5.37E-08	0.00017576	0.077589	0.0069882	41.31	0.024207	395920	416390	1713.4	863.41	1089.5	142.34	0.000023941	1.21E-05	0.014686
306.77	853530	1173.1	0.00085245	246260	246990	1160.5	924.13	1463.9	466.35	5.72E-08	0.00017501	0.077443	0.006944	41.72	0.02397	396090	416550	1713.3	864.52	1092.1	142.24	0.000023878	1.21E-05	0.014723
307.11	861710	1171.7	0.00085345	246750	247480	1162.1	924.63	1465.6	464.76	6.06E-08	0.00017427	0.077297	0.0068998	42.133	0.023734	396250	416710	1713.1	865.64	1094.7	142.15	0.000023815	1.21E-05	0.01476
307.45	869940	1170.3	0.00085446	247240	247980	1163.7	925.13	1467.3	463.17	6.41E-08	0.00017352	0.077152	0.0068557	42.55	0.023502	396420	416870	1713	866.76	1097.4	142.06	0.000023753	1.21E-05	0.014797
307.79	878230	1169	0.00085547	247730	248480	1165.3	925.63	1469	461.57	6.77E-08	0.00017278	0.077006	0.0068117	42.971	0.023272	396590	417020	1712.9	867.88	1100	141.96	0.000023691	1.21E-05	0.014835
308.13	886580	1167.6	0.00085648	248220	248980	1166.9	926.13	1470.8	459.98	7.13E-08	0.00017204	0.07686	0.0067677	43.395	0.023044	396750	417180	1712.8	869	1102.7	141.87	0.000023629	1.21E-05	0.014872
308.47	894990	1166.2	0.0008575	248720	249480	1168.5	926.63	1472.6	458.38	7.49E-08	0.0001713	0.076715	0.0067238	43.823	0.022819	396920	417340	1712.7	870.13	1105.4	141.77	0.000023568	1.21E-05	0.01491
308.81	903460	1164.8	0.00085852	249210	249980	1170.1	927.13	1474.3	456.79	7.85E-08	0.00017057	0.076569	0.0066799	44.255	0.022597	397080	417490	1712.6	871.26	1108.1	141.67	0.000023508	1.22E-05	0.014948
309.16	911980	1163.4	0.00085955	249700	250490	1171.7	927.64	1476.1	455.19	8.22E-08	0.00016984	0.076424	0.0066361	44.69	0.022376	397240	417650	1712.4	872.38	1110.8	141.57	0.000023448	1.22E-05	0.014986
309.5	920570	1162	0.00086059	250200	250990	1173.3	928.14	1478	453.6	8.59E-08	0.00016911	0.076278	0.0065923	45.129	0.022159	397410	417810	1712.3	873.51	1113.6	141.47	0.000023388	1.22E-05	0.015024
309.84	929220	1160.6	0.00086163	250690	251490	1174.9	928.65	1479.8	452	8.97E-08	0.00016838	0.076132	0.0065487	45.572	0.021943	397570	417960	1712.2	874.65	1116.3	141.37	0.000023329	1.22E-05	0.015063
310.18	937940	1159.2	0.00086267	251180	251990	1176.5	929.15	1481.6	450.4	9.35E-08	0.00016766	0.075987	0.006505	46.019	0.02173	397730	418110	1712.1	875.78	1119.1	141.27	0.000023271	1.22E-05	0.015102
310.52	946710	1157.8	0.00086372	251680	252500	1178.1	929.66	1483.5	448.8	9.74E-08	0.00016694	0.075841	0.0064615	46.469	0.02152	397890	418270	1712	876.91	1122	141.17	0.000023213	1.22E-05	0.01514
310.86	955540	1156.4	0.00086478	252170	253000	1179.7	930.17	1485.4	447.2	1.01E-07	0.00016622	0.075696	0.006418	46.924	0.021311	398060	418420	1711.9	878.05	1124.8	141.07	0.000023155	1.23E-05	0.015179
311.2	964440	1154.9	0.00086584	252670	253510	1181.3	930.68	1487.3	445.6	1.05E-07	0.0001655	0.07555	0.0063745	47.382	0.021105	398220	418570	1711.7	879.19	1127.7	140.96	0.000023098	1.23E-05	0.015218
311.54	973390	1153.5	0.00086691	253170	254010	1182.9	931.2	1489.2	444	1.09E-07	0.00016479	0.075404	0.0063311	47.844	0.020901	398380	418720	1711.6	880.33	1130.5	140.85	0.000023041	1.23E-05	0.015258
311.88	982410	1152.1	0.00086798	253660	254520	1184.5	931.71	1491.1	442.4	1.13E-07	0.00016408	0.075259	0.0062878	48.311	0.020699	398540	418870	1711.5	881.47	1133.5	140.75	0.000022984	1.23E-05	0.015297
312.22	991500	1150.7	0.00086906	254160	255020	1186.1	932.22	1493	440.8	1.17E-07	0.00016337	0.075113	0.0062445	48.781	0.0205	398700	419020	1711.4	882.62	1136.4	140.64	0.000022928	1.23E-05	0.015337
312.56	1000600	1149.2	0.00087015	254660	255530	1187.7	932.74	1495	439.2	1.21E-07	0.00016266	0.074967	0.0062013	49.255	0.020302	398860	419170	1711.3	883.77	1139.3	140.53	0.000022873	1.23E-05	0.015377
312.9	1009800	1147.8	0.00087124	255160	256040	1189.3	933.25	1497	437.59	1.25E-07	0.00016196	0.074822	0.0061582	49.734	0.020107	399020	419320	1711.1	884.91	1142.3	140.42	0.000022818	1.24E-05	0.015417
313.24	1019100	1146.3	0.00087234	255660	256550	1190.9	933.77	1499	435.99	1.30E-07	0.00016126	0.074676	0.0061151	50.217	0.019914	399170	419470	1711	886.06	1145.3	140.31	0.000022763	1.24E-05	0.015457
313.58	1028500	1144.9	0.00087344	256160	257060	1192.5	934.29	1501	434.39	1.34E-07	0.00016056	0.07453	0.0060721	50.704	0.019722	399330	419620	1710.9	887.22	1148.4	140.19	0.000022709	1.24E-05	0.015498
313.92	1037900	1143.4	0.00087455	256660	257570	1194.1	934.81	1503	432.78	1.38E-07	0.00015986	0.074385	0.0060292	51.195	0.019533	399490	419760	1710.8	888.37	1151.4	140.08	0.000022655	1.24E-05	0.015538
314.26	1047300	1142	0.00087566	257160	258080	1195.7	935.33	1505	431.17	1.42E-07	0.00015917	0.074239	0.0059863	51.69	0.019346	399650	419910	1710.7	889.53	1154.5	139.96	0.000022602	1.24E-05	0.015579
314.6	1056800	1140.5	0.00087679	257660	258590	1197.3	935.86	1507.1	429.57	1.47E-07	0.00015847	0.074093	0.0059435	52.19	0.019161	399800	420050	1710.5	890.69	1157.6	139.85	0.000022549	1.24E-05	0.01562
314.95	1066400	1139.1	0.00087791	258160	259100	1198.9	936.38	1509.2	427.96	1.51E-07	0.00015778	0.073947	0.0059007	52.694	0.018978	399960	420200	1710.4	891.85	1160.8	139.73	0.000022497	1.25E-05	0.015662
315.29	1076100	1137.6	0.00087905	258670	259610	1200.5	936.91	1511.3	426.35	1.56E-07	0.00015709	0.073802	0.005858	53.202	0.018796	400110	420340	1710.3	893.01	1163.9	139.61	0.000022445	1.25E-05	0.015703
315.63	1085800	1136.1	0.00088019	259170	260120	1202.1	937.43	1513.4	424.74	1.60E-07	0.00015641	0.073656	0.0058154	53.715	0.018617	400270	420480	1710.2	894.17	1167.1	139.49	0.000022393	1.25E-05	0.015745
315.97	1095600	1134.6	0.00088134	259670	260640	1203.7	937.96	1515.6	423.13	1.65E-07	0.00015572	0.07351	0.0057728	54.232	0.018439	400420	420630	1710	895.34	1170.3	139.37	0.000022342	1.25E-05	0.015787
316.31	1105500	1133.2	0.00088249	260180	261150	1205.3	938.49	1517.7	421.52	1.69E-07	0.00015504	0.073364	0.0057303	54.754	0.018263	400580	420770	1709.9	896.51	1173.6	139.25	0.000022291	1.25E-05	0.015829
316.65	1115400	1131.7	0.00088365	260680	261670	1206.9	939.02	1519.9	419.91	1.74E-07	0.00015436	0.073218	0.0056878	55.281	0.018089	400730	420910	1709.8	897.68	1176.9	139.13	0.000022241	1.26E-05	0.015872
316.99	1125400	1130.2	0.00088482	261190	262180	1208.5	939.56	1522.1	418.29	1.79E-07	0.00015369	0.073072	0.0056455	55.812	0.017917	400880	421050	1709.7	898.85	1180.2	139	0.000022191	1.26E-05	0.015915
317.33	1135400	1128.7	0.00088599	261690	262700	1210.1	940.09	1524.4	416.68	1.84E-07	0.00015301	0.072926	0.0056032	56.348	0.017747	401040	421190	1709.5	900.03	1183.5	138.88	0.000022142	1.26E-05	0.015958
317.67	1145600	1127.2	0.00088717	262200	263210	1211.7	940.63	1526.6	415.06	1.88E-07	0.00015234	0.07278	0.0055609	56.888	0.017578	401190	421330	1709.4	901.21	1186.9	138.75	0.000022092	1.26E-05	0.016001
318.01	1155700	1125.7	0.00088836	262700	263730	1213.3	941.16	1528.9	413.45	1.93E-07	0.00015166	0.072634	0.0055187	57.433	0.017412	401340	421460	1709.3	902.39	1190.3	138.62	0.000022044	1.26E-05	0.016044
318.35	1166000	1124.2	0.00088955	263210	264250	1214.9	941.7	1531.2	411.83	1.98E-07	0.000151	0.072488	0.0054766	57.983	0.017246	401490	421600	1709.2	903.57	1193.7	138.5	0.000021995	1.26E-05	0.016088
318.69	1176300	1122.6	0.00089076	263720	264770	1216.5	942.24	1533.5	410.21	2.03E-07	0.00015033	0.072342	0.0054346	58.538	0.017083	401640	421740	1709	904.75	1197.2	138.37	0.000021948	1.27E-05	0.016132
319.03	1186700	1121.1	0.00089197	264230	265290	1218.1	942.78	1535.8	408.6	2.08E-07	0.00014966	0.072196	0.0053926	59.098	0.016921	401790	421870	1708.9	905.94	1200.7	138.23	0.0000219	1.27E-05	0.016176
319.37	1197200	1119.6	0.00089318	264740	265810	1219.7	943.32	1538.2	406.98	2.13E-07	0.000149	0.07205	0.0053507	59.663	0.016761	401940	422010	1708.8	907.13	1204.3	138.1	0.000021853	1.27E-05	0.016221
319.71	1207700	1118.1	0.00089441	265250	266330	1221.3	943.87	1540.6	405.36	2.19E-07	0.00014834	0.071904	0.0053089	60.232	0.016602	402090	422140	1708.6	908.32	1207.8	137.97	0.000021806	1.27E-05	0.016266
320.05	1218300	1116.5	0.00089564	265760	266850	1222.9	944.41	1543	403.74	2.24E-07	0.00014768	0.071758	0.0052671	60.807	0.016445	402240	422270	1708.5	909.52	1211.5	137.83	0.00002176	1.27E-05	0.016311
320.4	1229000	1115	0.00089688	266270	267370	1224.5	944.96	1545.4	402.11	2.29E-07	0.00014702	0.071611	0.0052254	61.387	0.01629	402380	422400	1708.4	910.71	1215.1	137.7	0.000021714	1.28E-05	0.016356
320.74	1239700	1113.4	0.00089812	266780	267900	1226.1	945.51	1547.9	400.49	2.35E-07	0.00014637	0.071465	0.0051838	61.972	0.016136	402530	422530	1708.2	911.91	1218.8	137.56	0.000021669	1.28E-05	0.016402
321.08	1250500	1111.9	0.00089938	267290	268420	1227.7	946.06	1550.4	398.87	2.40E-07	0.00014571	0.071319	0.0051422	62.562	0.015984	402680	422660	1708.1	913.11	1222.5	137.42	0.000021624	1.28E-05	0.016448
321.42	1261400	1110.3	0.00090064	267810	268940	1229.3	946.61	1552.9	397.24	2.46E-07	0.00014506	0.071172	0.0051007	63.158	0.015833	402820	422790	1708	914.32	1226.3	137.28	0.000021579	1.28E-05	0.016494
321.76	1272400	1108.8	0.00090191	268320	269470	1230.9	947.17	1555.5	395.61	2.51E-07	0.00014441	0.071026	0.0050593	63.759	0.015684	402970	422920	1707.8	915.53	1230.1	137.14	0.000021535	1.28E-05	0.01654
322.1	1283400	1107.2	0.00090319	268840	269990	1232.5	947.72	1558	393.99	2.57E-07	0.00014376	0.070879	0.0050179	64.365	0.015536	403110	423050	1707.7	916.73	1233.9	137	0.000021491	1.29E-05	0.016587
322.44	1294500	1105.6	0.00090448	269350	270520	1234.1	948.28	1560.6	392.36	2.62E-07	0.00014312	0.070733	0.0049766	64.977	0.01539	403250	423180	1707.5	917.95	1237.8	136.85	0.000021448	1.29E-05	0.016635
322.78	1305700	1104	0.00090577	269870	271050	1235.7	948.84	1563.3	390.73	2.68E-07	0.00014247	0.070586	0.0049354	65.594	0.015245	403400	423300	1707.4	919.16	1241.7	136.71	0.000021404	1.29E-05	0.016682
323.12	1316900	1102.4	0.00090707	270380	271580	1237.3	949.4	1565.9	389.1	2.74E-07	0.00014183	0.07044	0.0048942	66.217	0.015102	403540	423430	1707.3	920.38	1245.7	136.56	0.000021362	1.29E-05	0.01673
323.46	1328200	1100.9	0.00090839	270900	272110	1238.9	949.96	1568.6	387.47	2.80E-07	0.00014119	0.070293	0.0048532	66.845	0.01496	403680	423550	1707.1	921.6	1249.7	136.42	0.000021319	1.29E-05	0.016778
323.8	1339600	1099.3	0.00090971	271420	272640	1240.5	950.53	1571.3	385.83	2.86E-07	0.00014055	0.070146	0.0048122	67.479	0.014819	403820	423670	1707	922.82	1253.8	136.27	0.000021277	1.30E-05	0.016827
324.14	1351100	1097.7	0.00091104	271930	273170	1242.1	951.09	1574.1	384.2	2.92E-07	0.00013991	0.069999	0.0047712	68.119	0.01468	403960	423790	1706.8	924.05	1257.9	136.12	0.000021236	1.30E-05	0.016876
324.48	1362600	1096	0.00091237	272450	273700	1243.7	951.66	1576.8	382.57	2.98E-07	0.00013928	0.069853	0.0047304	68.764	0.014542	404100	423920	1706.7	925.28	1262	135.97	0.000021195	1.30E-05	0.016925
324.82	1374200	1094.4	0.00091372	272970	274230	1245.3	952.23	1579.6	380.93	3.04E-07	0.00013864	0.069706	0.0046896	69.416	0.014406	404240	424040	1706.5	926.51	1266.2	135.81	0.000021154	1.30E-05	0.016975
325.16	1385900	1092.8	0.00091508	273490	274760	1246.9	952.8	1582.5	379.29	3.11E-07	0.00013801	0.069559	0.0046489	70.073	0.014271	404380	424150	1706.4	927.74	1270.5	135.66	0.000021113	1.30E-05	0.017025
325.5	1397600	1091.2	0.00091644	274010	275300	1248.6	953.37	1585.4	377.65	3.17E-07	0.00013738	0.069412	0.0046082	70.737	0.014137	404510	424270	1706.2	928.98	1274.8	135.51	0.000021073	1.31E-05	0.017075
325.84	1409500	1089.5	0.00091782	274540	275830	1250.2	953.95	1588.3	376.01	3.24E-07	0.00013675	0.069265	0.0045677	71.407	0.014004	404650	424390	1706.1	930.22	1279.1	135.35	0.000021033	1.31E-05	0.017126
326.19	1421400	1087.9	0.0009192	275060	276370	1251.8	954.53	1591.2	374.37	3.30E-07	0.00013612	0.069117	0.0045272	72.082	0.013873	404790	424510	1705.9	931.47	1283.5	135.19	0.000020994	1.31E-05	0.017177
326.53	1433400	1086.3	0.00092059	275580	276900	1253.4	955.11	1594.2	372.73	3.37E-07	0.0001355	0.06897	0.0044868	72.764	0.013743	404920	424620	1705.8	932.71	1287.9	135.03	0.000020955	1.31E-05	0.017229
326.87	1445400	1084.6	0.000922	276110	277440	1255	955.69	1597.2	371.09	3.44E-07	0.00013487	0.068823	0.0044464	73.452	0.013614	405060	424730	1705.6	933.97	1292.5	134.87	0.000020916	1.31E-05	0.017281
327.21	1457500	1082.9	0.00092341	276630	277980	1256.6	956.27	1600.2	369.44	3.50E-07	0.00013425	0.068676	0.0044061	74.147	0.013487	405190	424850	1705.5	935.22	1297	134.71	0.000020878	1.32E-05	0.017333
327.55	1469700	1081.3	0.00092483	277160	278510	1258.2	956.86	1603.3	367.79	3.57E-07	0.00013363	0.068528	0.0043659	74.848	0.01336	405320	424960	1705.3	936.48	1301.6	134.55	0.00002084	1.32E-05	0.017386
327.89	1482000	1079.6	0.00092626	277680	279050	1259.8	957.45	1606.5	366.15	3.64E-07	0.00013301	0.068381	0.0043258	75.556	0.013235	405450	425070	1705.1	937.74	1306.3	134.38	0.000020803	1.32E-05	0.017439
328.23	1494400	1077.9	0.00092771	278210	279590	1261.4	958.04	1609.6	364.5	3.71E-07	0.00013239	0.068233	0.0042858	76.27	0.013111	405580	425180	1705	939	1311	134.22	0.000020766	1.32E-05	0.017493
328.57	1506800	1076.2	0.00092916	278740	280140	1263	958.63	1612.8	362.85	3.79E-07	0.00013177	0.068085	0.0042458	76.991	0.012989	405720	425290	1704.8	940.27	1315.8	134.05	0.000020729	1.33E-05	0.017547
328.91	1519300	1074.5	0.00093062	279260	280680	1264.7	959.22	1616.1	361.19	0.000000386	0.00013116	0.067938	0.0042059	77.719	0.012867	405840	425390	1704.6	941.54	1320.7	133.88	0.000020692	1.33E-05	0.017602
329.25	1531900	1072.8	0.0009321	279790	281220	1266.3	959.82	1619.3	359.54	3.93E-07	0.00013054	0.06779	0.0041661	78.453	0.012746	405970	425500	1704.5	942.81	1325.6	133.71	0.000020656	1.33E-05	0.017657
329.59	1544600	1071.1	0.00093358	280320	281760	1267.9	960.42	1622.7	357.89	4.01E-07	0.00012993	0.067642	0.0041264	79.195	0.012627	406100	425610	1704.3	944.09	1330.5	133.54	0.00002062	1.33E-05	0.017713
329.93	1557400	1069.4	0.00093508	280850	282310	1269.5	961.02	1626	356.23	4.09E-07	0.00012932	0.067494	0.0040868	79.943	0.012509	406230	425710	1704.1	945.37	1335.6	133.36	0.000020585	1.34E-05	0.017769
330.27	1570200	1067.7	0.00093659	281380	282860	1271.1	961.62	1629.4	354.57	4.16E-07	0.00012871	0.067346	0.0040472	80.699	0.012392	406350	425810	1704	946.65	1340.7	133.19	0.00002055	1.34E-05	0.017826
330.61	1583100	1066	0.00093811	281920	283400	1272.7	962.23	1632.9	352.91	4.24E-07	0.0001281	0.067198	0.0040077	81.462	0.012276	406480	425910	1703.8	947.94	1345.9	133.01	0.000020515	1.34E-05	0.017883
330.95	1596100	1064.2	0.00093964	282450	283950	1274.4	962.84	1636.4	351.25	4.32E-07	0.0001275	0.067049	0.0039683	82.232	0.012161	406600	426010	1703.6	949.23	1351.1	132.84	0.000020481	1.34E-05	0.017941
331.29	1609200	1062.5	0.00094118	282980	284500	1276	963.45	1640	349.59	4.40E-07	0.00012689	0.066901	0.003929	83.009	0.012047	406730	426110	1703.4	950.53	1356.5	132.66	0.000020447	1.35E-05	0.017999
331.63	1622300	1060.7	0.00094273	283520	285050	1277.6	964.07	1643.6	347.92	4.48E-07	0.00012629	0.066753	0.0038897	83.794	0.011934	406850	426210	1703.3	951.83	1361.8	132.48	0.000020413	1.35E-05	0.018058
331.98	1635500	1059	0.0009443	284050	285600	1279.2	964.68	1647.2	346.25	4.57E-07	0.00012568	0.066604	0.0038505	84.587	0.011822	406970	426310	1703.1	953.13	1367.3	132.3	0.00002038	1.35E-05	0.018117
332.32	1648900	1057.2	0.00094588	284590	286150	1280.8	965.3	1650.9	344.59	4.65E-07	0.00012508	0.066456	0.0038115	85.387	0.011711	407090	426400	1702.9	954.44	1372.9	132.11	0.000020347	1.35E-05	0.018177
332.66	1662200	1055.4	0.00094747	285130	286700	1282.5	965.93	1654.6	342.91	4.73E-07	0.00012448	0.066307	0.0037725	86.195	0.011602	407210	426500	1702.7	955.75	1378.5	131.93	0.000020314	1.36E-05	0.018237
333	1675700	1053.7	0.00094907	285670	287260	1284.1	966.55	1658.4	341.24	4.82E-07	0.00012388	0.066158	0.0037335	87.011	0.011493	407330	426590	1702.5	957.07	1384.2	131.74	0.000020282	1.36E-05	0.018298
333.34	1689300	1051.9	0.00095069	286200	287810	1285.7	967.18	1662.3	339.57	4.91E-07	0.00012329	0.066009	0.0036947	87.835	0.011385	407450	426680	1702.3	958.39	1390	131.55	0.00002025	1.36E-05	0.01836
333.68	1702900	1050.1	0.00095231	286740	288370	1287.3	967.81	1666.2	337.89	5.00E-07	0.00012269	0.06586	0.0036559	88.667	0.011278	407560	426770	1702.1	959.71	1395.9	131.37	0.000020218	1.36E-05	0.018422
334.02	1716600	1048.3	0.00095396	287290	288920	1289	968.45	1670.2	336.21	5.09E-07	0.00012209	0.065711	0.0036173	89.508	0.011172	407680	426860	1701.9	961.04	1401.9	131.18	0.000020187	1.37E-05	0.018485
334.36	1730400	1046.5	0.00095561	287830	289480	1290.6	969.08	1674.2	334.53	5.18E-07	0.0001215	0.065562	0.0035787	90.356	0.011067	407790	426950	1701.7	962.38	1407.9	130.98	0.000020156	1.37E-05	0.018549
334.7	1744300	1044.6	0.00095728	288370	290040	1292.2	969.72	1678.3	332.85	5.27E-07	0.00012091	0.065413	0.0035402	91.213	0.010963	407910	427030	1701.5	963.72	1414.1	130.79	0.000020125	1.37E-05	0.018613
335.04	1758300	1042.8	0.00095896	288910	290600	1293.9	970.37	1682.4	331.17	5.37E-07	0.00012031	0.065263	0.0035018	92.079	0.01086	408020	427120	1701.3	965.06	1420.3	130.59	0.000020095	1.37E-05	0.018678
335.38	1772400	1041	0.00096066	289460	291160	1295.5	971.02	1686.6	329.48	5.47E-07	0.00011972	0.065114	0.0034635	92.953	0.010758	408130	427200	1701.1	966.4	1426.6	130.4	0.000020065	1.38E-05	0.018744
335.72	1786500	1039.1	0.00096237	290000	291720	1297.1	971.67	1690.9	327.79	5.56E-07	0.00011913	0.064964	0.0034252	93.836	0.010657	408240	427280	1700.9	967.76	1433.1	130.2	0.000020035	1.38E-05	0.01881
336.06	1800700	1037.2	0.00096409	290550	292290	1298.8	972.32	1695.2	326.1	5.66E-07	0.00011855	0.064814	0.0033871	94.728	0.010557	408350	427360	1700.7	969.11	1439.6	130	0.000020005	1.38E-05	0.018877
336.4	1815100	1035.4	0.00096583	291100	292850	1300.4	972.98	1699.7	324.41	5.76E-07	0.00011796	0.064665	0.003349	95.629	0.010457	408460	427440	1700.5	970.47	1446.3	129.8	0.000019976	1.38E-05	0.018945
336.74	1829500	1033.5	0.00096759	291650	293420	1302	973.64	1704.1	322.71	5.87E-07	0.00011737	0.064515	0.003311	96.54	0.010358	408570	427520	1700.3	971.84	1453.1	129.59	0.000019947	1.39E-05	0.019014
337.08	1843900	1031.6	0.00096936	292190	293980	1303.7	974.31	1708.7	321.01	5.97E-07	0.00011679	0.064365	0.0032732	97.459	0.010261	408670	427590	1700.1	973.21	1459.9	129.39	0.000019919	1.39E-05	0.019083
337.43	1858500	1029.7	0.00097115	292740	294550	1305.3	974.97	1713.3	319.31	6.08E-07	0.0001162	0.064214	0.0032354	98.389	0.010164	408780	427670	1699.8	974.59	1466.9	129.18	0.000019891	1.39E-05	0.019153
337.77	1873200	1027.8	0.00097295	293300	295120	1307	975.65	1718	317.61	6.18E-07	0.00011562	0.064064	0.0031977	99.327	0.010068	408880	427740	1699.6	975.97	1474	128.98	0.000019863	1.40E-05	0.019224
338.11	1887900	1025.9	0.00097476	293850	295690	1308.6	976.33	1722.7	315.9	6.29E-07	0.00011504	0.063914	0.0031601	100.28	0.0099725	408980	427810	1699.4	977.36	1481.2	128.77	0.000019835	1.40E-05	0.019296
338.45	1902800	1024	0.0009766	294400	296260	1310.3	977.01	1727.6	314.2	6.41E-07	0.00011445	0.063763	0.0031225	101.23	0.0098781	409080	427880	1699.1	978.75	1488.6	128.55	0.000019808	1.40E-05	0.019369
338.79	1917700	1022	0.00097845	294960	296830	1311.9	977.69	1732.5	312.48	6.52E-07	0.00011387	0.063612	0.0030851	102.2	0.0097845	409180	427950	1698.9	980.15	1496.1	128.34	0.000019781	1.41E-05	0.019442
339.13	1932700	1020.1	0.00098032	295510	297410	1313.6	978.38	1737.5	310.77	6.63E-07	0.00011329	0.063462	0.0030478	103.18	0.0096917	409280	428010	1698.7	981.55	1503.7	128.13	0.000019754	1.41E-05	0.019516
339.47	1947800	1018.1	0.0009822	296070	297980	1315.2	979.08	1742.6	309.05	6.75E-07	0.00011271	0.063311	0.0030106	104.17	0.0095996	409380	428070	1698.4	982.96	1511.4	127.91	0.000019728	1.41E-05	0.019592
339.81	1963000	1016.2	0.0009841	296630	298560	1316.9	979.78	1747.8	307.33	0.000000687	0.00011214	0.06316	0.0029734	105.17	0.0095084	409470	428140	1698.2	984.38	1519.3	127.69	0.000019702	1.41E-05	0.019668
340.15	1978300	1014.2	0.00098602	297180	299140	1318.5	980.48	1753.1	305.61	6.99E-07	0.00011156	0.063009	0.0029364	106.18	0.0094179	409570	428200	1697.9	985.8	1527.3	127.47	0.000019676	1.42E-05	0.019745
340.49	1993600	1012.2	0.00098796	297740	299710	1320.2	981.19	1758.5	303.88	7.11E-07	0.00011098	0.062857	0.0028994	107.2	0.0093282	409660	428260	1697.7	987.23	1535.5	127.25	0.00001965	1.42E-05	0.019824
340.83	2009100	1010.2	0.00098992	298310	300290	1321.8	981.9	1763.9	302.16	0.000000724	0.00011041	0.062706	0.0028626	108.23	0.0092392	409750	428310	1697.4	988.66	1543.9	127.03	0.000019625	1.42E-05	0.019903
341.17	2024700	1008.2	0.0009919	298870	300880	1323.5	982.62	1769.5	300.42	7.37E-07	0.00010983	0.062554	0.0028258	109.28	0.009151	409840	428370	1697.2	990.1	1552.4	126.8	0.0000196	1.43E-05	0.019983
341.51	2040300	1006.1	0.00099389	299430	301460	1325.2	983.34	1775.1	298.69	7.50E-07	0.00010926	0.062403	0.0027892	110.33	0.0090635	409930	428420	1696.9	991.55	1561	126.58	0.000019575	1.43E-05	0.020064
341.85	2056000	1004.1	0.00099591	300000	302040	1326.8	984.07	1780.9	296.95	7.63E-07	0.00010868	0.062251	0.0027526	111.4	0.0089767	410020	428470	1696.7	993	1569.8	126.35	0.000019551	1.43E-05	0.020147
342.19	2071900	1002.1	0.00099794	300560	302630	1328.5	984.81	1786.8	295.2	7.77E-07	0.00010811	0.062099	0.0027161	112.48	0.0088906	410100	428520	1696.4	994.46	1578.8	126.12	0.000019526	1.44E-05	0.02023
342.53	2087800	1000	0.001	301130	303220	1330.2	985.55	1792.8	293.46	7.90E-07	0.00010754	0.061947	0.0026798	113.57	0.0088053	410190	428570	1696.1	995.93	1588	125.89	0.000019503	1.44E-05	0.020315
342.87	2103800	997.93	0.0010021	301700	303810	1331.8	986.3	1798.9	291.71	8.04E-07	0.00010697	0.061795	0.0026435	114.67	0.0087206	410270	428610	1695.8	997.4	1597.4	125.65	0.000019479	1.44E-05	0.020401
343.22	2119900	995.85	0.0010042	302270	304400	1333.5	987.05	1805.1	289.95	8.18E-07	0.0001064	0.061642	0.0026074	115.79	0.0086366	410350	428660	1695.6	998.88	1606.9	125.42	0.000019455	1.45E-05	0.020488
343.56	2136100	993.75	0.0010063	302840	304990	1335.2	987.81	1811.5	288.2	8.33E-07	0.00010583	0.06149	0.0025713	116.91	0.0085533	410430	428700	1695.3	1000.4	1616.7	125.18	0.000019432	1.45E-05	0.020576
343.9	2152400	991.64	0.0010084	303410	305580	1336.9	988.58	1817.9	286.43	8.48E-07	0.00010526	0.061337	0.0025354	118.06	0.0084706	410510	428740	1695	1001.9	1626.6	124.94	0.000019409	1.46E-05	0.020665
344.24	2168800	989.52	0.0010106	303980	306180	1338.5	989.35	1824.5	284.67	8.63E-07	0.00010469	0.061185	0.0024995	119.21	0.0083886	410580	428770	1694.7	1003.4	1636.8	124.7	0.000019387	1.46E-05	0.020756
344.58	2185300	987.38	0.0010128	304560	306770	1340.2	990.13	1831.3	282.9	8.78E-07	0.00010412	0.061032	0.0024638	120.38	0.0083072	410660	428810	1694.4	1004.9	1647.2	124.46	0.000019364	1.46E-05	0.020848
344.92	2201900	985.23	0.001015	305130	307370	1341.9	990.92	1838.2	281.12	8.94E-07	0.00010355	0.060879	0.0024282	121.56	0.0082265	410730	428840	1694.1	1006.4	1657.8	124.21	0.000019342	1.47E-05	0.020941
345.26	2218600	983.06	0.0010172	305710	307970	1343.6	991.71	1845.2	279.34	0.00000091	0.00010298	0.060726	0.0023926	122.75	0.0081465	410800	428870	1693.8	1007.9	1668.6	123.97	0.00001932	1.47E-05	0.021036
345.6	2235400	980.88	0.0010195	306290	308570	1345.3	992.51	1852.4	277.56	9.26E-07	0.00010241	0.060572	0.0023572	123.96	0.008067	410870	428900	1693.5	1009.5	1679.7	123.72	0.000019298	1.47E-05	0.021133
345.94	2252200	978.69	0.0010218	306870	309170	1347	993.32	1859.7	275.77	9.43E-07	0.00010184	0.060419	0.0023219	125.19	0.0079882	410930	428930	1693.1	1011	1691.1	123.47	0.000019276	1.48E-05	0.02123
346.28	2269200	976.48	0.0010241	307450	309780	1348.7	994.14	1867.2	273.98	0.00000096	0.00010128	0.060266	0.0022867	126.42	0.0079099	411000	428950	1692.8	1012.5	1702.7	123.22	0.000019255	1.48E-05	0.02133
346.62	2286300	974.26	0.0010264	308040	310380	1350.4	994.97	1874.9	272.18	9.77E-07	0.00010071	0.060112	0.0022517	127.68	0.0078323	411060	428970	1692.5	1014.1	1714.5	122.96	0.000019234	1.49E-05	0.02143
346.96	2303400	972.02	0.0010288	308620	310990	1352.1	995.8	1882.7	270.38	9.95E-07	0.00010014	0.059958	0.0022167	128.95	0.0077552	411120	428990	1692.2	1015.7	1726.7	122.7	0.000019213	1.49E-05	0.021533
347.3	2320700	969.77	0.0010312	309210	311600	1353.8	996.65	1890.7	268.57	1.01E-06	9.96E-05	0.059804	0.0021818	130.23	0.0076787	411180	429000	1691.8	1017.3	1739.1	122.45	0.000019192	1.49E-05	0.021637
347.64	2338100	967.5	0.0010336	309800	312210	1355.5	997.5	1898.9	266.76	1.03E-06	9.90E-05	0.05965	0.0021471	131.53	0.0076028	411240	429020	1691.5	1018.8	1751.9	122.19	0.000019171	1.50E-05	0.021743
347.98	2355600	965.21	0.001036	310390	312830	1357.2	998.36	1907.3	264.94	1.05E-06	9.84E-05	0.059496	0.0021125	132.85	0.0075275	411290	429030	1691.1	1020.4	1764.9	121.92	0.000019151	1.50E-05	0.02185
348.32	2373100	962.91	0.0010385	310980	313440	1358.9	999.24	1915.9	263.12	1.07E-06	9.79E-05	0.059342	0.002078	134.18	0.0074527	411350	429030	1690.8	1022	1778.3	121.66	0.000019131	1.51E-05	0.021959
348.66	2390800	960.59	0.001041	311570	314060	1360.6	1000.1	1924.7	261.29	1.09E-06	9.73E-05	0.059187	0.0020436	135.53	0.0073785	411400	429040	1690.4	1023.7	1792	121.39	0.000019111	1.51E-05	0.022071
349.01	2408600	958.25	0.0010436	312170	314680	1362.4	1001	1933.7	259.45	1.11E-06	9.67E-05	0.059033	0.0020093	136.9	0.0073048	411450	429040	1690	1025.3	1806.1	121.13	0.000019091	1.52E-05	0.022184
349.35	2426500	955.89	0.0010461	312760	315300	1364.1	1001.9	1943	257.61	1.13E-06	9.62E-05	0.058878	0.0019751	138.28	0.0072317	411490	429040	1689.7	1026.9	1820.6	120.86	0.000019071	1.52E-05	0.022299
349.69	2444400	953.52	0.0010487	313360	315920	1365.8	1002.8	1952.4	255.76	1.15E-06	9.56E-05	0.058724	0.0019411	139.68	0.007159	411540	429040	1689.3	1028.6	1835.4	120.58	0.000019051	1.53E-05	0.022416
350.03	2462500	951.13	0.0010514	313960	316550	1367.5	1003.8	1962.2	253.91	1.17E-06	9.50E-05	0.058569	0.0019072	141.11	0.0070869	411580	429030	1688.9	1030.2	1850.6	120.31	0.000019032	1.53E-05	0.022535
350.37	2480700	948.71	0.0010541	314560	317180	1369.3	1004.7	1972.2	252.05	1.20E-06	9.45E-05	0.058414	0.0018734	142.55	0.0070153	411620	429020	1688.5	1031.9	1866.3	120.03	0.000019012	1.54E-05	0.022656
350.71	2499000	946.28	0.0010568	315170	317810	1371	1005.7	1982.4	250.18	1.22E-06	9.39E-05	0.058259	0.0018398	144.01	0.0069442	411650	429010	1688.1	1033.6	1882.3	119.75	0.000018993	1.54E-05	0.022779
351.05	2517400	943.83	0.0010595	315770	318440	1372.8	1006.6	1992.9	248.31	0.000001241	9.34E-05	0.058104	0.0018062	145.49	0.0068736	411690	428990	1687.7	1035.3	1898.9	119.47	0.000018974	1.54E-05	0.022905
351.39	2535900	941.36	0.0010623	316380	319070	1374.5	1007.6	2003.8	246.43	1.26E-06	9.28E-05	0.057949	0.0017728	146.99	0.0068034	411720	428970	1687.3	1037	1915.9	119.19	0.000018954	1.55E-05	0.023033
351.73	2554500	938.87	0.0010651	316990	319710	1376.3	1008.6	2014.9	244.54	1.29E-06	9.22E-05	0.057794	0.0017395	148.51	0.0067338	411750	428950	1686.8	1038.7	1933.4	118.9	0.000018935	1.56E-05	0.023163
352.07	2573200	936.36	0.001068	317600	320350	1378	1009.6	2026.3	242.64	0.000001314	9.16E-05	0.057638	0.0017064	150.05	0.0066646	411770	428920	1686.4	1040.4	1951.4	118.62	0.000018916	1.56E-05	0.023296
352.41	2592000	933.82	0.0010709	318220	320990	1379.8	1010.6	2038.1	240.74	1.34E-06	9.11E-05	0.057483	0.0016734	151.61	0.0065958	411790	428890	1686	1042.2	1970	118.33	0.000018897	1.57E-05	0.023432
352.75	2611000	931.26	0.0010738	318830	321640	1381.6	1011.7	2050.2	238.83	1.37E-06	9.05E-05	0.057328	0.0016405	153.2	0.0065275	411810	428860	1685.5	1043.9	1989.1	118.04	0.000018878	1.57E-05	0.02357
353.09	2630000	928.68	0.0010768	319450	322280	1383.3	1012.7	2062.7	236.91	1.39E-06	8.99E-05	0.057173	0.0016078	154.81	0.0064597	411830	428820	1685.1	1045.7	2008.9	117.74	0.00001886	1.58E-05	0.023711
353.43	2649100	926.08	0.0010798	320070	322930	1385.1	1013.8	2075.6	234.99	1.42E-06	8.94E-05	0.057017	0.0015752	156.44	0.0063923	411850	428780	1684.6	1047.5	2029.2	117.44	0.000018841	1.58E-05	0.023855
353.77	2668400	923.45	0.0010829	320690	323580	1386.9	1014.9	2088.9	233.05	1.45E-06	8.88E-05	0.056862	0.0015427	158.09	0.0063253	411860	428730	1684.1	1049.3	2050.3	117.15	0.000018822	1.59E-05	0.024002
354.11	2687800	920.79	0.001086	321320	324240	1388.7	1016	2102.6	231.11	1.48E-06	8.82E-05	0.056707	0.0015104	159.78	0.0062588	411860	428690	1683.7	1051.1	2072	116.84	0.000018803	1.59E-05	0.024152
354.46	2707200	918.11	0.0010892	321950	324890	1390.5	1017.1	2116.7	229.16	1.51E-06	8.77E-05	0.056552	0.0014782	161.48	0.0061926	411870	428630	1683.2	1052.9	2094.4	116.54	0.000018784	1.60E-05	0.024305
354.8	2726800	915.41	0.0010924	322570	325550	1392.3	1018.3	2131.3	227.2	1.54E-06	8.71E-05	0.056397	0.0014461	163.22	0.0061269	411870	428580	1682.7	1054.8	2117.6	116.24	0.000018765	1.61E-05	0.024461
355.14	2746500	912.67	0.0010957	323210	326220	1394.1	1019.5	2146.4	225.23	0.00000157	8.65E-05	0.056242	0.0014143	164.98	0.0060615	411870	428510	1682.1	1056.6	2141.6	115.93	0.000018746	1.61E-05	0.024621
355.48	2766300	909.91	0.001099	323840	326880	1395.9	1020.6	2162	223.26	1.60E-06	8.59E-05	0.056087	0.0013825	166.76	0.0059965	411860	428450	1681.6	1058.5	2166.5	115.62	0.000018726	1.62E-05	0.024784
355.82	2786300	907.12	0.0011024	324480	327550	1397.7	1021.9	2178.2	221.27	1.64E-06	8.54E-05	0.055932	0.0013509	168.58	0.0059319	411850	428380	1681.1	1060.4	2192.2	115.3	0.000018707	1.62E-05	0.024951
356.16	2806300	904.3	0.0011058	325120	328220	1399.6	1023.1	2194.9	219.28	1.67E-06	8.48E-05	0.055777	0.0013195	170.42	0.0058677	411840	428300	1680.5	1062.3	2218.9	114.99	0.000018687	1.63E-05	0.025121
356.5	2826500	901.45	0.0011093	325760	328900	1401.4	1024.4	2212.3	217.27	1.71E-06	8.42E-05	0.055623	0.0012882	172.3	0.0058038	411820	428220	1680	1064.3	2246.6	114.67	0.000018668	1.64E-05	0.025296
356.84	2846700	898.57	0.0011129	326410	329580	1403.2	1025.6	2230.3	215.25	1.74E-06	8.36E-05	0.055469	0.001257	174.21	0.0057403	411800	428140	1679.4	1066.2	2275.4	114.35	0.000018648	1.64E-05	0.025475
357.18	2867100	895.65	0.0011165	327060	330260	1405.1	1027	2249	213.23	1.78E-06	8.30E-05	0.055315	0.0012261	176.15	0.0056771	411770	428050	1678.8	1068.2	2305.2	114.03	0.000018628	1.65E-05	0.025658
357.52	2887600	892.7	0.0011202	327710	330950	1406.9	1028.3	2268.4	211.19	1.82E-06	8.25E-05	0.055162	0.0011952	178.12	0.0056143	411740	427950	1678.3	1070.2	2336.3	113.7	0.000018607	1.66E-05	0.025846
357.86	2908300	889.72	0.0011239	328370	331640	1408.8	1029.7	2288.6	209.15	1.86E-06	8.19E-05	0.055009	0.0011646	180.12	0.0055517	411700	427850	1677.7	1072.2	2368.6	113.37	0.000018587	1.66E-05	0.026038
358.2	2929000	886.7	0.0011278	329030	332330	1410.7	1031.1	2309.7	207.09	0.0000019	8.13E-05	0.054857	0.0011341	182.17	0.0054895	411660	427740	1677	1074.2	2402.3	113.04	0.000018566	1.67E-05	0.026235
358.54	2949900	883.65	0.0011317	329690	333030	1412.5	1032.5	2331.6	205.02	1.94E-06	8.07E-05	0.054705	0.0011038	184.24	0.0054276	411620	427630	1676.4	1076.3	2437.5	112.71	0.000018544	1.68E-05	0.026437
358.88	2970800	880.55	0.0011357	330360	333730	1414.4	1033.9	2354.4	202.95	1.99E-06	8.01E-05	0.054553	0.0010736	186.36	0.005366	411570	427510	1675.8	1078.4	2474.1	112.37	0.000018523	1.69E-05	0.026645
359.22	2991900	877.42	0.0011397	331020	334430	1416.3	1035.4	2378.3	200.86	2.03E-06	7.95E-05	0.054403	0.0010437	188.52	0.0053046	411520	427390	1675.1	1080.5	2512.4	112.03	0.0000185	1.70E-05	0.026858
359.56	3013200	874.24	0.0011438	331700	335140	1418.2	1037	2403.2	198.75	2.08E-06	7.89E-05	0.054253	0.0010139	190.71	0.0052435	411460	427260	1674.4	1082.6	2552.4	111.69	0.000018478	1.70E-05	0.027076
359.9	3034500	871.02	0.0011481	332380	335860	1420.2	1038.5	2429.3	196.64	0.000002128	7.83E-05	0.054104	0.00098425	192.95	0.0051827	411390	427120	1673.7	1084.7	2594.3	111.34	0.000018454	1.71E-05	0.027301
360.25	3056000	867.76	0.0011524	333060	336580	1422.1	1040.1	2456.6	194.51	2.18E-06	7.77E-05	0.053956	0.00095481	195.23	0.0051221	411320	426970	1673	1086.9	2638.2	110.99	0.000018431	1.72E-05	0.027533
360.59	3077600	864.45	0.0011568	333740	337300	1424	1041.8	2485.2	192.38	2.23E-06	7.71E-05	0.053809	0.00092556	197.56	0.0050617	411240	426820	1672.3	1089.1	2684.3	110.64	0.000018406	1.73E-05	0.027771
360.93	3099300	861.09	0.0011613	334430	338030	1426	1043.5	2515.2	190.23	2.28E-06	7.65E-05	0.053663	0.0008965	199.94	0.0050016	411160	426660	1671.5	1091.4	2732.7	110.29	0.000018381	1.74E-05	0.028016
361.27	3121100	857.68	0.0011659	335130	338770	1427.9	1045.2	2546.8	188.06	0.000002341	7.59E-05	0.053519	0.00086764	202.36	0.0049417	411070	426500	1670.8	1093.6	2783.6	109.93	0.000018355	1.75E-05	0.028268
361.61	3143100	854.22	0.0011707	335830	339500	1429.9	1046.9	2580.1	185.89	2.40E-06	7.53E-05	0.053376	0.00083897	204.84	0.0048819	410980	426320	1670	1095.9	2837.2	109.57	0.000018329	1.76E-05	0.028529
361.95	3165200	850.71	0.0011755	336530	340250	1431.9	1048.8	2615.2	183.7	2.46E-06	7.47E-05	0.053235	0.0008105	207.37	0.0048224	410870	426140	1669.2	1098.3	2893.8	109.21	0.000018301	1.77E-05	0.028797
362.29	3187400	847.13	0.0011805	337240	341000	1433.9	1050.6	2652.3	181.5	2.52E-06	7.40E-05	0.053096	0.00078223	209.95	0.0047629	410760	425940	1668.4	1100.6	2953.5	108.84	0.000018273	1.78E-05	0.029075
362.63	3209800	843.5	0.0011855	337950	341760	1435.9	1052.6	2691.4	179.28	2.59E-06	7.34E-05	0.052959	0.00075418	212.6	0.0047037	410640	425740	1667.5	1103	3016.7	108.47	0.000018243	1.79E-05	0.029361
362.97	3232300	839.8	0.0011908	338670	342520	1438	1054.5	2733	177.05	2.66E-06	7.28E-05	0.052825	0.00072634	215.31	0.0046446	410520	425530	1666.7	1105.5	3083.7	108.1	0.000018213	1.80E-05	0.029658
363.31	3254900	836.04	0.0011961	339400	343290	1440	1056.6	2777.1	174.81	2.73E-06	7.22E-05	0.052693	0.00069871	218.08	0.0045855	410380	425310	1665.8	1108	3154.8	107.72	0.000018181	1.81E-05	0.029965
363.65	3277600	832.21	0.0012016	340130	344070	1442.1	1058.7	2824	172.55	2.80E-06	7.15E-05	0.052565	0.00067132	220.92	0.0045266	410240	425080	1664.8	1110.5	3230.5	107.34	0.000018148	1.82E-05	0.030283
363.99	3300500	828.31	0.0012073	340870	344860	1444.2	1060.8	2874	170.27	2.88E-06	7.09E-05	0.052439	0.00064414	223.83	0.0044677	410090	424830	1663.9	1113.1	3311.2	106.96	0.000018113	1.83E-05	0.030613
364.33	3323500	824.33	0.0012131	341620	345650	1446.3	1063	2927.4	167.98	2.96E-06	7.02E-05	0.052318	0.00061721	226.81	0.0044089	409930	424580	1662.9	1115.7	3397.3	106.57	0.000018077	1.84E-05	0.030956
364.67	3346700	820.26	0.0012191	342370	346450	1448.4	1065.3	2984.6	165.68	3.04E-06	6.96E-05	0.052202	0.00059051	229.88	0.0043501	409750	424310	1661.9	1118.3	3489.6	106.18	0.000018039	1.85E-05	0.031313
365.01	3370000	816.11	0.0012253	343130	347260	1450.5	1067.7	3046.1	163.36	3.13E-06	6.89E-05	0.05209	0.00056406	233.03	0.0042913	409570	424030	1660.8	1121	3588.6	105.78	0.000018	1.87E-05	0.031684
365.35	3393400	811.87	0.0012317	343900	348080	1452.7	1070.1	3112.2	161.02	3.22E-06	6.82E-05	0.051984	0.00053787	236.27	0.0042325	409380	423740	1659.8	1123.8	3695.2	105.38	0.000017958	1.88E-05	0.032072
365.69	3417000	807.54	0.0012383	344680	348910	1454.9	1072.6	3183.7	158.67	3.32E-06	6.75E-05	0.051884	0.00051194	239.6	0.0041735	409170	423430	1658.6	1126.6	3810.2	104.98	0.000017914	1.89E-05	0.032477
366.04	3440700	803.1	0.0012452	345460	349750	1457.1	1075.3	3261.1	156.3	3.42E-06	6.69E-05	0.051791	0.00048627	243.04	0.0041145	408950	423110	1657.5	1129.5	3934.8	104.57	0.000017868	1.91E-05	0.0329
366.38	3464600	798.55	0.0012523	346260	350600	1459.3	1078	3345.3	153.91	3.53E-06	6.62E-05	0.051707	0.00046088	246.58	0.0040554	408710	422760	1656.3	1132.4	4070.1	104.15	0.000017819	1.92E-05	0.033344
366.72	3488600	793.88	0.0012596	347070	351460	1461.6	1080.8	3437.1	151.5	3.64E-06	6.55E-05	0.051632	0.00043578	250.24	0.0039961	408470	422410	1655.1	1135.4	4217.6	103.73	0.000017768	1.94E-05	0.03381
367.06	3512700	789.08	0.0012673	347890	352340	1463.9	1083.7	3537.9	149.08	3.76E-06	6.47E-05	0.051567	0.00041097	254.03	0.0039365	408200	422030	1653.8	1138.5	4379.2	103.31	0.000017713	1.95E-05	0.034302
367.4	3537000	784.15	0.0012753	348720	353230	1466.2	1086.7	3648.8	146.63	0.000003888	6.40E-05	0.051515	0.00038646	257.95	0.0038767	407920	421630	1652.4	1141.7	4556.8	102.88	0.000017655	1.97E-05	0.03482
367.74	3561500	779.06	0.0012836	349560	354130	1468.6	1089.8	3771.5	144.17	4.02E-06	6.33E-05	0.051476	0.00036228	262.02	0.0038166	407620	421210	1651	1144.9	4753.1	102.44	0.000017593	1.99E-05	0.035369
368.08	3586100	773.82	0.0012923	350420	355050	1471	1093.1	3908.1	141.69	4.16E-06	6.25E-05	0.051453	0.00033842	266.24	0.003756	407300	420770	1649.6	1148.2	4971.1	102	0.000017527	2.01E-05	0.035951
368.42	3610900	768.39	0.0013014	351290	355990	1473.5	1096.5	4061.1	139.18	4.31E-06	6.18E-05	0.051448	0.0003149	270.64	0.003695	406950	420290	1648	1151.6	5214.8	101.55	0.000017457	2.03E-05	0.036572
368.76	3635800	762.78	0.001311	352180	356950	1476	1100.1	4233.7	136.65	4.47E-06	6.10E-05	0.051465	0.00029174	275.23	0.0036334	406580	419790	1646.4	1155.2	5488.9	101.1	0.000017381	2.05E-05	0.037237
369.1	3660800	756.94	0.0013211	353090	357930	1478.6	1103.8	4429.8	134.1	4.64E-06	6.02E-05	0.051506	0.00026896	280.03	0.0035711	406190	419260	1644.7	1158.8	5799.6	100.64	0.000017299	2.07E-05	0.037951
369.44	3686100	750.87	0.0013318	354030	358940	1481.2	1107.7	4654.7	131.52	4.82E-06	5.94E-05	0.051576	0.00024657	285.06	0.003508	405770	418700	1643	1162.6	6154.8	100.16	0.000017211	2.09E-05	0.038722
369.78	3711500	744.53	0.0013431	354980	359970	1483.9	1111.8	4915.3	128.91	5.01E-06	5.85E-05	0.05168	0.00022458	290.36	0.003444	405310	418090	1641.1	1166.5	6564.9	99.683	0.000017116	2.12E-05	0.03956
370.12	3737000	737.89	0.0013552	355960	361030	1486.7	1116.2	5220.9	126.28	5.22E-06	5.76E-05	0.051825	0.00020304	295.95	0.0033789	404810	417440	1639.1	1170.5	7043.8	99.192	0.000017012	2.14E-05	0.040478
370.46	3762800	730.9	0.0013682	356980	362130	1489.6	1120.8	5584.1	123.61	5.44E-06	5.67E-05	0.052018	0.00018196	301.89	0.0033125	404280	416740	1637	1174.7	7610.4	98.689	0.000016898	2.17E-05	0.041491
370.8	3788700	723.5	0.0013822	358030	363260	1492.5	1125.7	6023	120.91	5.69E-06	5.58E-05	0.052273	0.00016137	308.22	0.0032444	403690	415980	1634.7	1179.1	8291.3	98.173	0.000016773	2.20E-05	0.04262
371.14	3814800	715.64	0.0013974	359120	364450	1495.6	1130.9	6563.9	118.18	5.95E-06	5.48E-05	0.052603	0.0001413	315.02	0.0031744	403040	415150	1632.2	1183.8	9125.5	97.641	0.000016635	2.24E-05	0.043895
371.49	3841100	707.21	0.001414	360260	365690	1498.9	1136.5	7247	115.4	6.24E-06	5.38E-05	0.053032	0.00012182	322.37	0.003102	402330	414240	1629.6	1188.6	10171	97.092	0.00001648	2.27E-05	0.045356
371.83	3867500	698.09	0.0014325	361470	367010	1502.3	1142.6	8136.1	112.57	6.55E-06	5.27E-05	0.053594	0.00010295	330.41	0.0030266	401530	413230	1626.6	1193.8	11521	96.521	0.000016306	2.31E-05	0.047063
372.17	3894200	688.1	0.0014533	362750	368410	1506	1149.3	9339.9	109.69	6.90E-06	5.15E-05	0.054343	8.48E-05	339.3	0.0029473	400620	412100	1623.4	1199.3	13330	95.923	0.000016107	2.36E-05	0.049108
372.51	3921100	676.98	0.0014771	364140	369930	1510	1156.7	11058	106.75	0.000007297	5.03E-05	0.055374	6.74E-05	349.31	0.0028628	399580	410810	1619.7	1205.2	15882	95.291	0.000015876	2.41E-05	0.051644
372.85	3948100	664.31	0.0015053	365670	371610	1514.4	1165.1	13701	103.73	0.000007743	4.88E-05	0.056867	5.09E-05	360.86	0.0027711	398350	409290	1615.4	1211.7	19751	94.613	0.0000156	2.47E-05	0.054949
373.19	3975500	649.35	0.00154	367410	373530	1519.4	1174.9	18260	100.6	8.26E-06	4.72E-05	0.059212	3.54E-05	374.72	0.0026687	396850	407460	1610.3	1218.9	26302	93.867	0.000015261	2.55E-05	0.059596
373.53	4003000	630.55	0.0015859	369500	375850	1525.5	1186.9	27849	97.333	8.89E-06	4.53E-05	0.063478	2.12E-05	392.44	0.0025482	394880	405080	1603.7	1227.1	39743	93.011	0.000014816	2.65E-05	0.067063
373.87	4030900	603.55	0.0016569	372370	379050	1533.9	1203.3	59230	93.841	9.71E-06	4.26E-05	0.074199	8.87E-06	418.55	0.0023892	391950	401580	1594.2	1236.7	82054	91.934	0.000014152	2.81E-05	0.083177
374.21	4059100	511.9	0.0019535	381710	389640	1562.1	#VALUE!	#VALUE!	undefined	0.000011931	3.47E-05	undefined	1.05E-19	511.9	0.0019535	381710	389640	1562.1	#VALUE!	#VALUE!	undefined	0.000011931	3.47E-05	undefined
