Temperature (K)	Pressure (Pa)	"Density (l, kg/m3)"	"Volume (l, m3/kg)"	"Internal Energy (l, J/kg)"	"Enthalpy (l, J/kg)"	"Entropy (l, J/kg*K)"	"Cv (l, J/kg*K)"	"Cp (l, J/kg*K)"	"Sound Spd. (l, m/s)"	"Joule-Thomson (l, K/Pa)"	"Viscosity (l, Pa*s)"	"Therm. Cond. (l, W/m*K)"	"Surf. Tension (l, N/m)"	"Density (v, kg/m3)"	"Volume (v, m3/kg)"	"Internal Energy (v, J/kg)"	"Enthalpy (v, J/kg)"	"Entropy (v, J/kg*K)"	"Cv (v, J/kg*K)"	"Cp (v, J/kg*K)"	"Sound Spd. (v, m/s)"	"Joule-Thomson (v, K/Pa)"	"Viscosity (v, Pa*s)"	"Therm. Cond. (v, W/m*K)"
146.35	7.03E+00	1884.9	0.00053053	71910	71910	375.3	654.07	959.13	1068.8	-4.21E-07	0.0033896	0.092563	undefined	0.00098253	1017.8	242060	249220	1586.8	423.47	472.4	89.345	0.00063083	5.62E-06	0.0038309
146.73	7.50E+00	1883.7	0.00053086	72277	72277	377.8	654.14	958.86	1066.6	-4.21E-07	0.0033498	0.092514	undefined	0.0010453	956.62	242230	249400	1584.9	424.43	473.36	89.451	0.00062054	5.63E-06	0.0038485
147.12	8.00E+00	1882.5	0.00053119	72644	72644	380.3	654.21	958.6	1064.4	-4.21E-07	0.0033107	0.092464	undefined	0.0011117	899.5	242390	249580	1583	425.39	474.32	89.557	0.00061045	5.65E-06	0.0038661
147.5	8.52E+00	1881.4	0.00053153	73011	73011	382.79	654.29	958.35	1062.3	-4.21E-07	0.0032723	0.092414	undefined	0.0011819	846.11	242550	249760	1581.1	426.35	475.28	89.663	0.00060056	5.66E-06	0.0038838
147.88	9.08E+00	1880.2	0.00053186	73378	73378	385.27	654.38	958.11	1060.1	-4.21E-07	0.0032344	0.092364	undefined	0.001256	796.2	242710	249940	1579.3	427.31	476.24	89.769	0.00059087	5.68E-06	0.0039015
148.26	9.67E+00	1879	0.00053219	73744	73744	387.75	654.48	957.88	1058	-4.21E-07	0.0031973	0.092314	undefined	0.0013342	749.53	242880	250130	1577.4	428.28	477.21	89.875	0.00058136	5.69E-06	0.0039193
148.65	1.03E+01	1877.8	0.00053253	74111	74111	390.22	654.58	957.66	1055.8	-4.21E-07	0.0031607	0.092263	undefined	0.0014167	705.86	243040	250310	1575.6	429.24	478.17	89.98	0.00057205	5.70E-06	0.0039371
149.03	1.10E+01	1876.7	0.00053286	74477	74477	392.68	654.68	957.45	1053.7	-4.21E-07	0.0031248	0.092213	undefined	0.0015038	664.99	243210	250490	1573.8	430.2	479.13	90.085	0.00056291	5.72E-06	0.003955
149.41	1.17E+01	1875.5	0.00053319	74844	74844	395.13	654.79	957.25	1051.5	-4.21E-07	0.0030894	0.092162	undefined	0.0015956	626.72	243370	250680	1572	431.16	480.1	90.19	0.00055395	5.73E-06	0.0039729
149.79	1.24E+01	1874.3	0.00053353	75210	75210	397.58	654.91	957.05	1049.4	-4.21E-07	0.0030547	0.09211	undefined	0.0016924	590.87	243540	250860	1570.2	432.13	481.06	90.295	0.00054517	5.75E-06	0.0039908
150.18	1.32E+01	1873.1	0.00053386	75576	75576	400.02	655.03	956.87	1047.3	-4.21E-07	0.0030204	0.092059	undefined	0.0017944	557.28	243700	251040	1568.4	433.09	482.03	90.4	0.00053656	5.76E-06	0.0040088
150.56	1.40E+01	1872	0.0005342	75942	75942	402.46	655.16	956.7	1045.2	-4.21E-07	0.0029868	0.092007	undefined	0.0019019	525.8	243870	251230	1566.7	434.05	482.99	90.505	0.00052811	5.78E-06	0.0040269
150.94	1.49E+01	1870.8	0.00053453	76308	76308	404.89	655.3	956.53	1043	-4.21E-07	0.0029537	0.091955	undefined	0.002015	496.27	244030	251410	1565	435.02	483.96	90.61	0.00051982	5.79E-06	0.004045
151.32	1.58E+01	1869.6	0.00053487	76674	76674	407.31	655.44	956.37	1040.9	-4.21E-07	0.0029211	0.091903	undefined	0.0021342	468.57	244200	251600	1563.3	435.98	484.93	90.714	0.0005117	5.81E-06	0.0040631
151.71	1.68E+01	1868.5	0.0005352	77040	77040	409.72	655.59	956.22	1038.8	-4.21E-07	0.0028891	0.091851	undefined	0.0022595	442.57	244370	251780	1561.6	436.95	485.89	90.818	0.00050373	5.82E-06	0.0040813
152.09	1.78E+01	1867.3	0.00053554	77406	77406	412.13	655.74	956.08	1036.7	-4.21E-07	0.0028575	0.091798	undefined	0.0023914	418.16	244530	251970	1559.9	437.91	486.86	90.922	0.00049591	5.84E-06	0.0040995
152.47	1.89E+01	1866.1	0.00053587	77772	77772	414.53	655.9	955.95	1034.6	-4.21E-07	0.0028265	0.091745	undefined	0.0025301	395.24	244700	252160	1558.2	438.88	487.83	91.026	0.00048824	5.85E-06	0.0041178
152.86	2.00E+01	1865	0.00053621	78138	78138	416.93	656.06	955.83	1032.5	-4.21E-07	0.002796	0.091692	undefined	0.0026759	373.71	244870	252340	1556.6	439.85	488.8	91.13	0.00048072	5.86E-06	0.0041361
153.24	2.12E+01	1863.8	0.00053654	78503	78503	419.32	656.23	955.72	1030.4	-4.21E-07	0.0027659	0.091639	undefined	0.0028291	353.47	245040	252530	1555	440.81	489.76	91.234	0.00047333	5.88E-06	0.0041545
153.62	2.25E+01	1862.6	0.00053688	78869	78869	421.7	656.4	955.61	1028.3	-4.20E-07	0.0027363	0.091586	undefined	0.0029901	334.44	245210	252720	1553.4	441.78	490.73	91.338	0.00046609	5.89E-06	0.0041729
154	2.38E+01	1861.4	0.00053722	79235	79235	424.08	656.58	955.51	1026.2	-4.20E-07	0.0027072	0.091532	undefined	0.0031591	316.54	245370	252900	1551.8	442.75	491.7	91.441	0.00045899	5.91E-06	0.0041913
154.39	2.52E+01	1860.3	0.00053755	79600	79600	426.45	656.76	955.42	1024.2	-4.20E-07	0.0026785	0.091478	undefined	0.0033366	299.7	245540	253090	1550.2	443.71	492.67	91.544	0.00045201	5.92E-06	0.0042098
154.77	2.67E+01	1859.1	0.00053789	79966	79966	428.82	656.95	955.34	1022.1	-4.20E-07	0.0026503	0.091424	undefined	0.0035229	283.85	245710	253280	1548.6	444.68	493.64	91.648	0.00044517	5.94E-06	0.0042284
155.15	2.82E+01	1858	0.00053823	80332	80332	431.18	657.15	955.27	1020	-4.20E-07	0.0026225	0.09137	undefined	0.0037184	268.93	245880	253470	1547.1	445.65	494.61	91.751	0.00043846	5.95E-06	0.004247
155.53	2.98E+01	1856.8	0.00053857	80697	80697	433.53	657.35	955.21	1017.9	-4.20E-07	0.0025951	0.091315	undefined	0.0039234	254.88	246050	253660	1545.6	446.62	495.58	91.854	0.00043187	5.97E-06	0.0042656
155.92	3.15E+01	1855.6	0.0005389	81063	81063	435.88	657.55	955.15	1015.9	-4.20E-07	0.0025682	0.09126	undefined	0.0041384	241.64	246220	253850	1544.1	447.58	496.56	91.956	0.0004254	5.98E-06	0.0042843
156.3	3.33E+01	1854.5	0.00053924	81428	81428	438.22	657.76	955.1	1013.8	-4.20E-07	0.0025416	0.091205	undefined	0.0043637	229.16	246400	254040	1542.6	448.55	497.53	92.059	0.00041905	6.00E-06	0.004303
156.68	3.52E+01	1853.3	0.00053958	81794	81794	440.55	657.97	955.06	1011.8	-4.20E-07	0.0025155	0.09115	undefined	0.0045998	217.4	246570	254230	1541.1	449.52	498.5	92.162	0.00041282	6.01E-06	0.0043218
157.06	3.72E+01	1852.1	0.00053992	82159	82159	442.88	658.19	955.02	1009.7	-4.20E-07	0.0024898	0.091094	undefined	0.0048472	206.3	246740	254420	1539.6	450.49	499.47	92.264	0.00040671	6.03E-06	0.0043406
157.45	3.93E+01	1851	0.00054026	82524	82524	445.21	658.41	954.99	1007.7	-4.20E-07	0.0024644	0.091039	undefined	0.0051063	195.84	246910	254610	1538.2	451.46	500.44	92.366	0.0004007	6.04E-06	0.0043594
157.83	4.15E+01	1849.8	0.0005406	82890	82890	447.53	658.64	954.98	1005.6	-4.20E-07	0.0024394	0.090983	undefined	0.0053775	185.96	247080	254800	1536.7	452.43	501.42	92.468	0.00039481	6.06E-06	0.0043783
158.21	4.38E+01	1848.6	0.00054094	83255	83255	449.84	658.87	954.96	1003.6	-4.19E-07	0.0024148	0.090927	undefined	0.0056614	176.64	247260	254990	1535.3	453.4	502.39	92.57	0.00038902	6.07E-06	0.0043973
158.6	4.62E+01	1847.5	0.00054128	83621	83621	452.14	659.11	954.96	1001.6	-4.19E-07	0.0023906	0.09087	undefined	0.0059584	167.83	247430	255180	1533.9	454.37	503.36	92.672	0.00038334	6.08E-06	0.0044163
158.98	4.87E+01	1846.3	0.00054162	83986	83986	454.45	659.35	954.96	999.54	-4.19E-07	0.0023667	0.090814	undefined	0.0062691	159.51	247600	255380	1532.5	455.34	504.33	92.774	0.00037776	6.10E-06	0.0044353
159.36	5.14E+01	1845.2	0.00054196	84352	84352	456.74	659.59	954.97	997.52	-4.19E-07	0.0023431	0.090757	undefined	0.006594	151.65	247780	255570	1531.1	456.31	505.31	92.875	0.00037229	6.11E-06	0.0044544
159.74	5.42E+01	1844	0.0005423	84717	84717	459.03	659.84	954.99	995.49	-4.19E-07	0.0023199	0.0907	undefined	0.0069337	144.22	247950	255760	1529.8	457.28	506.28	92.977	0.00036691	6.13E-06	0.0044735
160.13	5.71E+01	1842.8	0.00054264	85082	85083	461.32	660.1	955.01	993.48	-4.19E-07	0.0022971	0.090643	undefined	0.0072887	137.2	248130	255960	1528.4	458.25	507.26	93.078	0.00036163	6.14E-06	0.0044927
160.51	6.01E+01	1841.7	0.00054298	85448	85448	463.6	660.35	955.04	991.47	-4.19E-07	0.0022745	0.090585	undefined	0.0076596	130.56	248300	256150	1527.1	459.22	508.23	93.179	0.00035644	6.16E-06	0.0045119
160.89	6.33E+01	1840.5	0.00054332	85813	85813	465.87	660.62	955.08	989.46	-4.18E-07	0.0022523	0.090528	undefined	0.008047	124.27	248480	256340	1525.8	460.19	509.21	93.28	0.00035135	6.17E-06	0.0045312
161.27	6.66E+01	1839.4	0.00054366	86179	86179	468.14	660.88	955.12	987.45	-4.18E-07	0.0022305	0.09047	undefined	0.0084515	118.32	248650	256540	1524.5	461.16	510.18	93.381	0.00034635	6.19E-06	0.0045504
161.66	7.01E+01	1838.2	0.00054401	86544	86544	470.4	661.15	955.17	985.45	-4.18E-07	0.0022089	0.090412	undefined	0.0088739	112.69	248830	256730	1523.2	462.13	511.16	93.482	0.00034144	6.20E-06	0.0045698
162.04	7.38E+01	1837.1	0.00054435	86910	86910	472.66	661.43	955.23	983.46	-4.18E-07	0.0021876	0.090353	undefined	0.0093147	107.36	249010	256930	1521.9	463.1	512.13	93.582	0.00033661	6.22E-06	0.0045892
162.42	7.76E+01	1835.9	0.00054469	87275	87276	474.92	661.7	955.29	981.47	-4.18E-07	0.0021667	0.090295	undefined	0.0097746	102.31	249180	257120	1520.6	464.07	513.11	93.683	0.00033187	6.23E-06	0.0046086
162.8	8.16E+01	1834.7	0.00054503	87641	87641	477.16	661.99	955.36	979.48	-4.18E-07	0.002146	0.090236	undefined	0.010254	97.52	249360	257320	1519.4	465.04	514.08	93.783	0.00032721	6.25E-06	0.0046281
163.19	8.58E+01	1833.6	0.00054538	88007	88007	479.41	662.27	955.44	977.49	-4.17E-07	0.0021256	0.090177	undefined	0.010755	92.984	249540	257520	1518.1	466.02	515.06	93.883	0.00032264	6.26E-06	0.0046476
163.57	9.02E+01	1832.4	0.00054572	88372	88372	481.64	662.56	955.52	975.51	-4.17E-07	0.0021055	0.090118	undefined	0.011276	88.683	249720	257710	1516.9	466.99	516.04	93.983	0.00031815	6.28E-06	0.0046671
163.95	9.47E+01	1831.3	0.00054607	88738	88738	483.88	662.85	955.61	973.54	-4.17E-07	0.0020857	0.090059	undefined	0.01182	84.604	249890	257910	1515.7	467.96	517.01	94.083	0.00031373	6.29E-06	0.0046867
164.34	9.95E+01	1830.1	0.00054641	89104	89104	486.11	663.15	955.71	971.56	-4.17E-07	0.0020662	0.089999	undefined	0.012386	80.735	250070	258110	1514.5	468.93	517.99	94.183	0.00030939	6.31E-06	0.0047063
164.72	1.04E+02	1829	0.00054676	89469	89469	488.33	663.45	955.81	969.6	-4.17E-07	0.0020469	0.089939	undefined	0.012976	77.064	250250	258300	1513.3	469.9	518.97	94.282	0.00030513	6.32E-06	0.004726
165.1	1.10E+02	1827.8	0.0005471	89835	89835	490.55	663.76	955.92	967.63	-4.16E-07	0.0020279	0.089879	undefined	0.013591	73.58	250430	258500	1512.1	470.87	519.94	94.382	0.00030094	6.33E-06	0.0047457
165.48	1.15E+02	1826.7	0.00054745	90201	90201	492.76	664.07	956.03	965.67	-4.16E-07	0.0020091	0.089819	undefined	0.014231	70.271	250610	258700	1511	471.84	520.92	94.481	0.00029683	6.35E-06	0.0047655
165.87	1.21E+02	1825.5	0.00054779	90567	90567	494.97	664.38	956.15	963.71	-4.16E-07	0.0019906	0.089759	undefined	0.014897	67.13	250790	258900	1509.8	472.82	521.9	94.58	0.00029278	6.36E-06	0.0047853
166.25	1.27E+02	1824.4	0.00054814	90933	90933	497.17	664.69	956.28	961.76	-4.16E-07	0.0019724	0.089698	undefined	0.01559	64.145	250970	259100	1508.7	473.79	522.88	94.679	0.00028881	6.38E-06	0.0048052
166.63	1.33E+02	1823.2	0.00054848	91299	91299	499.37	665.01	956.41	959.81	-4.16E-07	0.0019544	0.089637	undefined	0.016311	61.309	251150	259300	1507.6	474.76	523.85	94.778	0.0002849	6.39E-06	0.004825
167.01	1.39E+02	1822.1	0.00054883	91665	91665	501.56	665.33	956.55	957.87	-4.15E-07	0.0019366	0.089576	undefined	0.017061	58.614	251330	259500	1506.5	475.73	524.83	94.877	0.00028106	6.41E-06	0.004845
167.4	1.46E+02	1820.9	0.00054918	92031	92031	503.75	665.66	956.69	955.92	-4.15E-07	0.0019191	0.089515	undefined	0.017841	56.051	251520	259700	1505.4	476.7	525.81	94.976	0.00027729	6.42E-06	0.0048649
167.78	1.53E+02	1819.7	0.00054953	92397	92397	505.94	665.99	956.84	953.99	-4.15E-07	0.0019019	0.089453	undefined	0.018652	53.614	251700	259900	1504.3	477.67	526.79	95.074	0.00027358	6.44E-06	0.0048849
168.16	1.60E+02	1818.6	0.00054987	92763	92763	508.12	666.32	957	952.05	-4.15E-07	0.0018848	0.089392	undefined	0.019495	51.296	251880	260100	1503.2	478.64	527.77	95.172	0.00026993	6.45E-06	0.004905
168.54	1.68E+02	1817.4	0.00055022	93129	93129	510.29	666.65	957.16	950.12	-4.14E-07	0.001868	0.08933	undefined	0.02037	49.091	252060	260300	1502.1	479.62	528.75	95.271	0.00026635	6.47E-06	0.0049251
168.93	1.76E+02	1816.3	0.00055057	93496	93496	512.46	666.99	957.32	948.19	-4.14E-07	0.0018514	0.089268	undefined	0.02128	46.992	252240	260500	1501.1	480.59	529.72	95.369	0.00026283	6.48E-06	0.0049452
169.31	1.84E+02	1815.1	0.00055092	93862	93862	514.63	667.33	957.5	946.27	-4.14E-07	0.001835	0.089206	undefined	0.022225	44.993	252430	260700	1500	481.56	530.7	95.467	0.00025936	6.50E-06	0.0049654
169.69	1.92E+02	1814	0.00055127	94228	94229	516.79	667.68	957.67	944.35	-4.14E-07	0.0018188	0.089143	undefined	0.023207	43.091	252610	260900	1499	482.53	531.68	95.564	0.00025596	6.51E-06	0.0049856
170.08	2.01E+02	1812.8	0.00055162	94595	94595	518.95	668.02	957.85	942.44	-4.13E-07	0.0018028	0.08908	undefined	0.024226	41.279	252800	261110	1498	483.5	532.66	95.662	0.00025261	6.53E-06	0.0050058
170.46	2.11E+02	1811.7	0.00055197	94962	94962	521.1	668.37	958.04	940.52	-4.13E-07	0.0017871	0.089017	undefined	0.025283	39.552	252980	261310	1497	484.47	533.64	95.76	0.00024932	6.54E-06	0.0050261
170.84	2.20E+02	1810.5	0.00055232	95328	95328	523.25	668.73	958.24	938.61	-4.13E-07	0.0017715	0.088954	undefined	0.026381	37.907	253160	261510	1496	485.44	534.62	95.857	0.00024608	6.56E-06	0.0050465
171.22	2.30E+02	1809.4	0.00055267	95695	95695	525.4	669.08	958.43	936.71	-4.13E-07	0.0017562	0.088891	undefined	0.027519	36.339	253350	261720	1495	486.42	535.6	95.954	0.0002429	6.57E-06	0.0050668
171.61	2.41E+02	1808.2	0.00055302	96062	96062	527.54	669.44	958.64	934.81	-4.12E-07	0.001741	0.088827	undefined	0.0287	34.843	253530	261920	1494	487.39	536.58	96.051	0.00023976	6.59E-06	0.0050872
171.99	2.51E+02	1807.1	0.00055338	96429	96429	529.67	669.8	958.84	932.91	-4.12E-07	0.001726	0.088764	undefined	0.029924	33.418	253720	262120	1493.1	488.36	537.56	96.148	0.00023669	6.60E-06	0.0051077
172.37	2.63E+02	1805.9	0.00055373	96796	96796	531.8	670.17	959.06	931.01	-4.12E-07	0.0017112	0.0887	undefined	0.031194	32.058	253910	262330	1492.1	489.33	538.54	96.245	0.00023366	6.62E-06	0.0051282
172.75	2.74E+02	1804.8	0.00055408	97163	97163	533.93	670.54	959.28	929.12	-4.12E-07	0.0016967	0.088636	undefined	0.03251	30.76	254090	262530	1491.2	490.3	539.52	96.341	0.00023068	6.63E-06	0.0051487
173.14	2.87E+02	1803.6	0.00055443	97530	97530	536.05	670.91	959.5	927.24	-4.11E-07	0.0016822	0.088571	undefined	0.033873	29.522	254280	262740	1490.3	491.27	540.5	96.438	0.00022775	6.65E-06	0.0051693
173.52	2.99E+02	1802.5	0.00055479	97897	97897	538.17	671.28	959.73	925.35	-4.11E-07	0.001668	0.088507	undefined	0.035286	28.34	254470	262940	1489.3	492.24	541.48	96.534	0.00022487	6.66E-06	0.0051899
173.9	3.12E+02	1801.3	0.00055514	98264	98264	540.28	671.66	959.96	923.47	-4.11E-07	0.001654	0.088442	undefined	0.03675	27.211	254650	263150	1488.4	493.21	542.46	96.63	0.00022204	6.68E-06	0.0052105
174.28	3.26E+02	1800.2	0.0005555	98632	98632	542.4	672.04	960.2	921.59	-4.10E-07	0.0016401	0.088377	undefined	0.038266	26.133	254840	263360	1487.5	494.18	543.45	96.726	0.00021925	6.69E-06	0.0052312
174.67	3.40E+02	1799	0.00055585	98999	98999	544.5	672.42	960.44	919.72	-4.10E-07	0.0016264	0.088312	undefined	0.039835	25.104	255030	263560	1486.7	495.15	544.43	96.822	0.0002165	6.71E-06	0.0052519
175.05	3.55E+02	1797.9	0.00055621	99367	99367	546.6	672.8	960.69	917.85	-4.10E-07	0.0016128	0.088247	undefined	0.04146	24.12	255220	263770	1485.8	496.12	545.41	96.918	0.00021381	6.72E-06	0.0052727
175.43	3.70E+02	1796.7	0.00055656	99734	99734	548.7	673.19	960.94	915.98	-4.09E-07	0.0015995	0.088181	undefined	0.043141	23.18	255410	263980	1484.9	497.09	546.39	97.013	0.00021115	6.74E-06	0.0052935
175.82	3.85E+02	1795.6	0.00055692	100100	100100	550.8	673.57	961.2	914.12	-4.09E-07	0.0015863	0.088115	undefined	0.044881	22.281	255590	264180	1484.1	498.06	547.37	97.109	0.00020854	6.75E-06	0.0053143
176.2	4.02E+02	1794.5	0.00055727	100470	100470	552.89	673.97	961.46	912.26	-4.09E-07	0.0015732	0.08805	undefined	0.046682	21.422	255780	264390	1483.2	499.03	548.35	97.204	0.00020597	6.77E-06	0.0053352
176.58	4.19E+02	1793.3	0.00055763	100840	100840	554.97	674.36	961.72	910.4	-4.08E-07	0.0015603	0.087983	undefined	0.048544	20.6	255970	264600	1482.4	500	549.33	97.299	0.00020344	6.78E-06	0.0053561
176.96	4.36E+02	1792.2	0.00055799	101210	101210	557.05	674.75	961.99	908.55	-4.08E-07	0.0015476	0.087917	undefined	0.050469	19.814	256160	264810	1481.6	500.97	550.32	97.394	0.00020095	6.79E-06	0.005377
177.35	4.54E+02	1791	0.00055835	101570	101570	559.13	675.15	962.27	906.7	-4.08E-07	0.001535	0.087851	undefined	0.05246	19.062	256350	265020	1480.7	501.94	551.3	97.489	0.00019851	6.81E-06	0.005398
177.73	4.73E+02	1789.9	0.0005587	101940	101940	561.21	675.55	962.55	904.85	-4.08E-07	0.0015225	0.087784	undefined	0.054518	18.342	256540	265230	1479.9	502.91	552.28	97.583	0.0001961	6.82E-06	0.005419
178.11	4.93E+02	1788.7	0.00055906	102310	102310	563.28	675.96	962.83	903.01	-4.07E-07	0.0015103	0.087717	undefined	0.056646	17.654	256740	265440	1479.1	503.88	553.26	97.678	0.00019373	6.84E-06	0.0054401
178.49	5.13E+02	1787.6	0.00055942	102680	102680	565.34	676.36	963.12	901.17	-4.07E-07	0.0014981	0.08765	undefined	0.058844	16.994	256930	265650	1478.3	504.85	554.25	97.772	0.00019139	6.85E-06	0.0054612
178.88	5.34E+02	1786.4	0.00055978	103050	103050	567.41	676.77	963.41	899.33	-4.06E-07	0.0014861	0.087583	undefined	0.061115	16.363	257120	265860	1477.6	505.82	555.23	97.866	0.00018909	6.87E-06	0.0054823
179.26	5.56E+02	1785.3	0.00056014	103420	103420	569.47	677.18	963.71	897.5	-4.06E-07	0.0014743	0.087515	undefined	0.06346	15.758	257310	266070	1476.8	506.79	556.21	97.96	0.00018683	6.88E-06	0.0055035
179.64	5.78E+02	1784.1	0.0005605	103790	103790	571.52	677.59	964.01	895.66	-4.06E-07	0.0014625	0.087447	undefined	0.065883	15.178	257500	266280	1476	507.76	557.2	98.054	0.00018461	6.90E-06	0.0055247
180.02	6.01E+02	1783	0.00056086	104150	104150	573.57	678	964.31	893.84	-4.05E-07	0.001451	0.08738	undefined	0.068384	14.623	257700	266490	1475.3	508.73	558.18	98.147	0.00018242	6.91E-06	0.0055459
180.41	6.25E+02	1781.8	0.00056122	104520	104520	575.62	678.42	964.62	892.01	-4.05E-07	0.0014395	0.087311	undefined	0.070966	14.091	257890	266700	1474.6	509.7	559.16	98.241	0.00018026	6.93E-06	0.0055672
180.79	6.50E+02	1780.7	0.00056159	104890	104890	577.66	678.84	964.93	890.19	-4.05E-07	0.0014282	0.087243	undefined	0.073631	13.581	258080	266910	1473.8	510.67	560.15	98.334	0.00017814	6.94E-06	0.0055885
181.17	6.76E+02	1779.5	0.00056195	105260	105260	579.71	679.26	965.25	888.37	-4.04E-07	0.001417	0.087175	undefined	0.076382	13.092	258280	267120	1473.1	511.63	561.13	98.427	0.00017605	6.96E-06	0.0056099
181.56	7.02E+02	1778.4	0.00056231	105630	105630	581.74	679.68	965.57	886.56	-4.04E-07	0.0014059	0.087106	undefined	0.07922	12.623	258470	267330	1472.4	512.6	562.11	98.52	0.00017399	6.97E-06	0.0056312
181.94	7.30E+02	1777.2	0.00056267	106000	106000	583.78	680.1	965.9	884.75	-4.04E-07	0.001395	0.087037	undefined	0.082147	12.173	258660	267550	1471.7	513.57	563.1	98.613	0.00017197	6.99E-06	0.0056527
182.32	7.58E+02	1776.1	0.00056304	106370	106370	585.81	680.53	966.22	882.94	-4.03E-07	0.0013842	0.086968	undefined	0.085167	11.742	258860	267760	1471	514.54	564.08	98.706	0.00016997	7.00E-06	0.0056741
182.7	7.87E+02	1774.9	0.0005634	106740	106740	587.83	680.96	966.56	881.13	-4.03E-07	0.0013735	0.086899	undefined	0.08828	11.328	259050	267970	1470.3	515.51	565.07	98.798	0.00016801	7.02E-06	0.0056956
183.09	8.18E+02	1773.8	0.00056377	107110	107110	589.85	681.39	966.89	879.33	-4.02E-07	0.0013629	0.08683	undefined	0.09149	10.93	259250	268190	1469.6	516.47	566.05	98.89	0.00016608	7.03E-06	0.0057171
183.47	8.49E+02	1772.6	0.00056413	107480	107480	591.87	681.82	967.23	877.53	-4.02E-07	0.0013525	0.08676	undefined	0.0948	10.549	259440	268400	1469	517.44	567.03	98.982	0.00016417	7.05E-06	0.0057387
183.85	8.81E+02	1771.5	0.0005645	107850	107850	593.89	682.25	967.58	875.73	-4.02E-07	0.0013422	0.08669	undefined	0.09821	10.182	259640	268620	1468.3	518.41	568.02	99.074	0.0001623	7.06E-06	0.0057603
184.23	9.15E+02	1770.3	0.00056486	108220	108220	595.9	682.69	967.93	873.94	-4.01E-07	0.0013319	0.08662	undefined	0.10173	9.8304	259840	268830	1467.7	519.37	569	99.166	0.00016045	7.08E-06	0.0057819
184.62	9.49E+02	1769.2	0.00056523	108590	108590	597.91	683.12	968.28	872.15	-4.01E-07	0.0013218	0.08655	undefined	0.10535	9.4925	260030	269040	1467	520.34	569.99	99.258	0.00015863	7.09E-06	0.0058036
185	9.85E+02	1768	0.0005656	108960	108960	599.91	683.56	968.63	870.36	-4.01E-07	0.0013118	0.08648	undefined	0.10908	9.1679	260230	269260	1466.4	521.31	570.98	99.349	0.00015684	7.11E-06	0.0058253
185.38	1.02E+03	1766.9	0.00056596	109330	109330	601.92	684	968.99	868.57	-4.00E-07	0.001302	0.086409	undefined	0.11292	8.8559	260430	269470	1465.8	522.27	571.96	99.44	0.00015508	7.12E-06	0.005847
185.76	1.06E+03	1765.7	0.00056633	109700	109700	603.92	684.45	969.35	866.79	-4.00E-07	0.0012922	0.086338	undefined	0.11688	8.5561	260630	269690	1465.1	523.24	572.95	99.531	0.00015334	7.14E-06	0.0058688
186.15	1.10E+03	1764.6	0.0005667	110070	110080	605.91	684.89	969.72	865.01	-3.99E-07	0.0012825	0.086268	undefined	0.12095	8.268	260820	269910	1464.5	524.21	573.93	99.622	0.00015163	7.15E-06	0.0058906
186.53	1.14E+03	1763.4	0.00056707	110450	110450	607.9	685.34	970.09	863.24	-3.99E-07	0.001273	0.086196	undefined	0.12514	7.9909	261020	270120	1463.9	525.17	574.92	99.713	0.00014994	7.17E-06	0.0059124
186.91	1.18E+03	1762.3	0.00056744	110820	110820	609.89	685.78	970.46	861.46	-3.98E-07	0.0012635	0.086125	undefined	0.12946	7.7245	261220	270340	1463.3	526.14	575.91	99.803	0.00014828	7.18E-06	0.0059343
187.3	1.22E+03	1761.1	0.00056781	111190	111190	611.88	686.23	970.84	859.69	-3.98E-07	0.0012541	0.086054	undefined	0.1339	7.4682	261420	270560	1462.8	527.1	576.89	99.893	0.00014664	7.20E-06	0.0059562
187.68	1.27E+03	1760	0.00056818	111560	111560	613.86	686.68	971.22	857.93	-3.98E-07	0.0012449	0.085982	undefined	0.13847	7.2217	261620	270770	1462.2	528.07	577.88	99.983	0.00014503	7.21E-06	0.0059781
188.06	1.31E+03	1758.9	0.00056855	111930	111930	615.84	687.13	971.6	856.16	-3.97E-07	0.0012357	0.08591	undefined	0.14317	6.9846	261820	270990	1461.6	529.03	578.87	100.07	0.00014344	7.23E-06	0.0060001
188.44	1.36E+03	1757.7	0.00056892	112300	112300	617.81	687.59	971.99	854.4	-3.97E-07	0.0012267	0.085838	undefined	0.14801	6.7564	262020	271210	1461.1	530	579.85	100.16	0.00014188	7.24E-06	0.0060221
188.83	1.41E+03	1756.6	0.0005693	112680	112680	619.78	688.04	972.38	852.64	-3.96E-07	0.0012177	0.085766	undefined	0.15298	6.5367	262220	271430	1460.5	530.96	580.84	100.25	0.00014034	7.26E-06	0.0060441
189.21	1.46E+03	1755.4	0.00056967	113050	113050	621.75	688.5	972.77	850.88	-3.96E-07	0.0012088	0.085694	undefined	0.1581	6.3252	262420	271650	1460	531.93	581.83	100.34	0.00013882	7.27E-06	0.0060662
189.59	1.51E+03	1754.3	0.00057004	113420	113420	623.72	688.96	973.17	849.13	-3.95E-07	0.0012	0.085621	undefined	0.16336	6.1216	262620	271860	1459.4	532.89	582.82	100.43	0.00013732	7.29E-06	0.0060883
189.97	1.56E+03	1753.1	0.00057042	113790	113790	625.68	689.42	973.57	847.38	-0.000000395	0.0011914	0.085548	undefined	0.16876	5.9256	262820	272080	1458.9	533.86	583.8	100.52	0.00013585	7.30E-06	0.0061104
190.36	1.62E+03	1752	0.00057079	114170	114170	627.64	689.88	973.97	845.63	-3.95E-07	0.0011828	0.085475	undefined	0.17432	5.7367	263020	272300	1458.4	534.82	584.79	100.61	0.00013439	7.32E-06	0.0061326
190.74	1.67E+03	1750.8	0.00057117	114540	114540	629.6	690.34	974.38	843.89	-3.94E-07	0.0011743	0.085402	undefined	0.18002	5.5548	263220	272520	1457.9	535.78	585.78	100.7	0.00013296	7.33E-06	0.0061548
191.12	1.73E+03	1749.6	0.00057154	114910	114910	631.55	690.8	974.79	842.14	-3.94E-07	0.0011658	0.085329	undefined	0.18589	5.3795	263420	272740	1457.4	536.75	586.77	100.79	0.00013155	7.35E-06	0.006177
191.5	1.79E+03	1748.5	0.00057192	115280	115280	633.5	691.27	975.2	840.4	-3.93E-07	0.0011575	0.085256	undefined	0.19192	5.2106	263630	272960	1456.9	537.71	587.76	100.87	0.00013016	7.36E-06	0.0061993
191.89	1.85E+03	1747.3	0.0005723	115660	115660	635.45	691.74	975.61	838.67	-3.93E-07	0.0011493	0.085182	undefined	0.19811	5.0478	263830	273180	1456.4	538.67	588.75	100.96	0.00012879	7.38E-06	0.0062215
192.27	1.92E+03	1746.2	0.00057267	116030	116030	637.39	692.2	976.03	836.93	-3.92E-07	0.0011411	0.085108	undefined	0.20446	4.8909	264030	273400	1455.9	539.64	589.74	101.05	0.00012743	7.39E-06	0.0062439
192.65	1.98E+03	1745	0.00057305	116400	116410	639.33	692.67	976.45	835.2	-3.92E-07	0.001133	0.085034	undefined	0.21099	4.7396	264230	273620	1455.4	540.6	590.73	101.14	0.0001261	7.41E-06	0.0062662
193.04	2.05E+03	1743.9	0.00057343	116780	116780	641.27	693.14	976.88	833.47	-3.91E-07	0.001125	0.08496	undefined	0.21769	4.5937	264440	273850	1454.9	541.56	591.72	101.22	0.00012479	7.42E-06	0.0062886
193.42	2.12E+03	1742.7	0.00057381	117150	117150	643.2	693.61	977.31	831.75	-3.91E-07	0.0011171	0.084886	undefined	0.22457	4.4529	264640	274070	1454.5	542.52	592.71	101.31	0.00012349	7.44E-06	0.006311
193.8	2.19E+03	1741.6	0.00057419	117530	117530	645.14	694.09	977.74	830.02	-3.90E-07	0.0011093	0.084811	undefined	0.23163	4.3172	264840	274290	1454	543.48	593.7	101.4	0.00012222	7.45E-06	0.0063335
194.18	2.26E+03	1740.4	0.00057457	117900	117900	647.07	694.56	978.17	828.3	-3.90E-07	0.0011015	0.084736	undefined	0.23888	4.1862	265050	274510	1453.6	544.45	594.69	101.48	0.00012096	7.47E-06	0.0063559
194.57	2.34E+03	1739.3	0.00057495	118270	118280	648.99	695.04	978.61	826.58	-3.89E-07	0.0010938	0.084661	undefined	0.24632	4.0598	265250	274730	1453.1	545.41	595.68	101.57	0.00011972	7.48E-06	0.0063785
194.95	2.41E+03	1738.1	0.00057533	118650	118650	650.92	695.51	979.05	824.87	-3.89E-07	0.0010862	0.084586	undefined	0.25395	3.9378	265460	274960	1452.7	546.37	596.67	101.66	0.0001185	7.50E-06	0.006401
195.33	2.49E+03	1737	0.00057571	119020	119030	652.84	695.99	979.49	823.15	-3.88E-07	0.0010787	0.084511	undefined	0.26177	3.8201	265660	275180	1452.3	547.33	597.66	101.74	0.00011729	7.51E-06	0.0064236
195.71	2.57E+03	1735.8	0.0005761	119400	119400	654.75	696.47	979.94	821.44	-3.88E-07	0.0010712	0.084436	undefined	0.2698	3.7064	265870	275400	1451.8	548.29	598.65	101.83	0.0001161	7.53E-06	0.0064462
196.1	2.66E+03	1734.7	0.00057648	119770	119780	656.67	696.95	980.38	819.73	-3.87E-07	0.0010639	0.08436	undefined	0.27803	3.5967	266070	275630	1451.4	549.25	599.64	101.91	0.00011493	7.54E-06	0.0064688
196.48	2.74E+03	1733.5	0.00057686	120150	120150	658.58	697.43	980.84	818.03	-3.87E-07	0.0010566	0.084284	undefined	0.28647	3.4907	266280	275850	1451	550.21	600.64	102	0.00011377	7.56E-06	0.0064915
196.86	2.83E+03	1732.4	0.00057725	120520	120530	660.49	697.91	981.29	816.32	-3.86E-07	0.0010493	0.084208	undefined	0.29513	3.3883	266490	276070	1450.6	551.17	601.63	102.08	0.00011263	7.57E-06	0.0065141
197.24	2.92E+03	1731.2	0.00057763	120900	120900	662.39	698.39	981.75	814.62	-3.86E-07	0.0010421	0.084132	undefined	0.304	3.2895	266690	276300	1450.2	552.13	602.62	102.17	0.00011151	7.59E-06	0.0065369
197.63	3.01E+03	1730	0.00057802	121280	121280	664.3	698.88	982.21	812.92	-3.85E-07	0.001035	0.084056	undefined	0.3131	3.1939	266900	276520	1449.8	553.09	603.62	102.25	0.0001104	7.60E-06	0.0065596
198.01	3.11E+03	1728.9	0.00057841	121650	121650	666.2	699.36	982.67	811.23	-3.85E-07	0.001028	0.08398	undefined	0.32242	3.1016	267110	276750	1449.5	554.05	604.61	102.34	0.00010931	7.62E-06	0.0065824
198.39	3.21E+03	1727.7	0.00057879	122030	122030	668.09	699.85	983.13	809.53	-3.84E-07	0.0010211	0.083903	undefined	0.33197	3.0123	267310	276970	1449.1	555.01	605.6	102.42	0.00010823	7.63E-06	0.0066052
198.78	3.31E+03	1726.6	0.00057918	122400	122410	669.99	700.34	983.6	807.84	-3.84E-07	0.0010142	0.083826	undefined	0.34175	2.9261	267520	277200	1448.7	555.97	606.6	102.51	0.00010717	7.65E-06	0.006628
199.16	3.41E+03	1725.4	0.00057957	122780	122780	671.88	700.82	984.07	806.15	-3.83E-07	0.0010073	0.083749	undefined	0.35178	2.8427	267730	277420	1448.4	556.93	607.59	102.59	0.00010612	7.66E-06	0.0066509
199.54	3.52E+03	1724.3	0.00057996	123160	123160	673.77	701.31	984.54	804.46	-3.83E-07	0.0010006	0.083672	undefined	0.36204	2.7621	267940	277650	1448	557.89	608.59	102.67	0.00010508	7.68E-06	0.0066738
199.92	3.62E+03	1723.1	0.00058035	123530	123540	675.66	701.8	985.02	802.78	-3.82E-07	0.00099386	0.083595	undefined	0.37256	2.6841	268150	277880	1447.7	558.85	609.58	102.76	0.00010406	7.69E-06	0.0066967
200.31	3.74E+03	1721.9	0.00058074	123910	123910	677.54	702.29	985.5	801.1	-3.82E-07	0.00098722	0.083517	0.018873	0.38333	2.6087	268360	278100	1447.3	559.81	610.58	102.84	0.00010305	7.71E-06	0.0067197
200.69	3.85E+03	1720.8	0.00058113	124290	124290	679.42	702.78	985.98	799.42	-3.81E-07	0.00098065	0.08344	0.018826	0.39436	2.5358	268570	278330	1447	560.76	611.57	102.92	0.00010206	7.72E-06	0.0067427
201.07	3.97E+03	1719.6	0.00058152	124670	124670	681.3	703.28	986.46	797.74	-3.81E-07	0.00097413	0.083362	0.018779	0.40565	2.4652	268770	278560	1446.6	561.72	612.57	103.01	0.00010108	7.74E-06	0.0067657
201.45	4.09E+03	1718.5	0.00058191	125040	125050	683.18	703.77	986.95	796.07	-3.80E-07	0.00096768	0.083284	0.018731	0.4172	2.3969	268980	278780	1446.3	562.68	613.57	103.09	0.00010011	7.75E-06	0.0067887
201.84	4.21E+03	1717.3	0.00058231	125420	125420	685.05	704.26	987.44	794.39	-3.80E-07	0.00096128	0.083206	0.018684	0.42903	2.3308	269190	279010	1446	563.64	614.56	103.17	0.000099161	7.77E-06	0.0068118
202.22	4.34E+03	1716.1	0.0005827	125800	125800	686.92	704.76	987.93	792.72	-3.79E-07	0.00095495	0.083127	0.018636	0.44114	2.2669	269400	279240	1445.7	564.59	615.56	103.25	0.00009822	7.78E-06	0.0068349
202.6	4.47E+03	1715	0.00058309	126180	126180	688.79	705.25	988.42	791.05	-3.78E-07	0.00094867	0.083049	0.018589	0.45352	2.205	269610	279470	1445.4	565.55	616.56	103.33	0.000097292	7.80E-06	0.006858
202.98	4.60E+03	1713.8	0.00058349	126550	126560	690.65	705.75	988.92	789.39	-3.78E-07	0.00094245	0.08297	0.018542	0.4662	2.145	269830	279690	1445.1	566.51	617.56	103.41	0.000096375	7.81E-06	0.0068812
203.37	4.74E+03	1712.7	0.00058389	126930	126940	692.52	706.25	989.41	787.72	-3.77E-07	0.00093629	0.082892	0.018494	0.47917	2.087	270040	279920	1444.8	567.46	618.56	103.49	0.000095472	7.83E-06	0.0069043
203.75	4.88E+03	1711.5	0.00058428	127310	127310	694.38	706.75	989.91	786.06	-3.77E-07	0.00093018	0.082813	0.018447	0.49243	2.0308	270250	280150	1444.5	568.42	619.56	103.58	0.00009458	7.84E-06	0.0069276
204.13	5.02E+03	1710.3	0.00058468	127690	127690	696.24	707.25	990.42	784.4	-3.76E-07	0.00092413	0.082733	0.0184	0.50599	1.9763	270460	280380	1444.2	569.38	620.55	103.66	0.000093699	7.86E-06	0.0069508
204.52	5.17E+03	1709.2	0.00058508	128070	128070	698.09	707.75	990.92	782.75	-3.76E-07	0.00091813	0.082654	0.018352	0.51987	1.9236	270670	280610	1443.9	570.33	621.55	103.74	0.000092831	7.87E-06	0.0069741
204.9	5.32E+03	1708	0.00058548	128450	128450	699.94	708.25	991.43	781.09	-3.75E-07	0.00091219	0.082575	0.018305	0.53405	1.8725	270880	280840	1443.7	571.29	622.55	103.82	0.000091973	7.89E-06	0.0069973
205.28	5.47E+03	1706.8	0.00058587	128830	128830	701.79	708.75	991.94	779.44	-3.74E-07	0.0009063	0.082495	0.018257	0.54856	1.823	271100	281070	1443.4	572.24	623.56	103.9	0.000091127	7.90E-06	0.0070207
205.66	5.63E+03	1705.7	0.00058627	129210	129210	703.64	709.25	992.45	777.79	-3.74E-07	0.00090046	0.082415	0.01821	0.56339	1.775	271310	281300	1443.1	573.2	624.56	103.98	0.000090292	7.92E-06	0.007044
206.05	5.79E+03	1704.5	0.00058668	129590	129590	705.49	709.75	992.97	776.14	-3.73E-07	0.00089468	0.082335	0.018163	0.57854	1.7285	271520	281530	1442.9	574.15	625.56	104.05	0.000089468	7.93E-06	0.0070674
206.43	5.95E+03	1703.4	0.00058708	129970	129970	707.33	710.25	993.49	774.49	-3.73E-07	0.00088895	0.082255	0.018115	0.59404	1.6834	271730	281760	1442.6	575.11	626.56	104.13	0.000088655	7.95E-06	0.0070908
206.81	6.12E+03	1702.2	0.00058748	130350	130350	709.17	710.76	994.01	772.85	-3.72E-07	0.00088326	0.082175	0.018068	0.60987	1.6397	271950	281990	1442.4	576.06	627.56	104.21	0.000087852	7.96E-06	0.0071142
207.19	6.30E+03	1701	0.00058788	130730	130730	711.01	711.26	994.53	771.21	-3.72E-07	0.00087763	0.082095	0.01802	0.62605	1.5973	272160	282220	1442.1	577.02	628.57	104.29	0.000087059	7.98E-06	0.0071377
207.58	6.47E+03	1699.9	0.00058828	131110	131110	712.84	711.77	995.05	769.57	-3.71E-07	0.00087205	0.082014	0.017973	0.64258	1.5562	272380	282450	1441.9	577.97	629.57	104.37	0.000086277	7.99E-06	0.0071611
207.96	6.66E+03	1698.7	0.00058869	131490	131490	714.68	712.27	995.58	767.93	-3.70E-07	0.00086651	0.081933	0.017926	0.65947	1.5164	272590	282680	1441.7	578.93	630.57	104.45	0.000085504	8.01E-06	0.0071846
208.34	6.84E+03	1697.5	0.00058909	131870	131880	716.51	712.78	996.11	766.29	-3.70E-07	0.00086103	0.081852	0.017878	0.67672	1.4777	272800	282910	1441.5	579.88	631.58	104.52	0.000084742	8.02E-06	0.0072082
208.72	7.03E+03	1696.4	0.0005895	132250	132260	718.33	713.29	996.64	764.66	-3.69E-07	0.00085559	0.081771	0.017831	0.69434	1.4402	273020	283150	1441.2	580.83	632.58	104.6	0.000083989	8.04E-06	0.0072317
209.11	7.23E+03	1695.2	0.00058991	132630	132640	720.16	713.79	997.17	763.03	-3.69E-07	0.0008502	0.08169	0.017784	0.71233	1.4038	273230	283380	1441	581.79	633.59	104.68	0.000083246	8.05E-06	0.0072553
209.49	7.42E+03	1694	0.00059031	133020	133020	721.98	714.3	997.71	761.4	-3.68E-07	0.00084485	0.081609	0.017736	0.73071	1.3685	273450	283610	1440.8	582.74	634.59	104.75	0.000082512	8.07E-06	0.0072789
209.87	7.63E+03	1692.8	0.00059072	133400	133400	723.81	714.81	998.24	759.77	-3.67E-07	0.00083955	0.081527	0.017689	0.74948	1.3343	273660	283840	1440.6	583.69	635.6	104.83	0.000081788	8.08E-06	0.0073026
210.26	7.84E+03	1691.7	0.00059113	133780	133780	725.62	715.32	998.78	758.14	-3.67E-07	0.0008343	0.081445	0.017641	0.76863	1.301	273880	284070	1440.4	584.64	636.6	104.91	0.000081072	8.10E-06	0.0073262
210.64	8.05E+03	1690.5	0.00059154	134160	134170	727.44	715.83	999.32	756.52	-3.66E-07	0.00082909	0.081364	0.017594	0.78819	1.2687	274100	284310	1440.2	585.6	637.61	104.98	0.000080366	8.11E-06	0.0073499
211.02	8.27E+03	1689.3	0.00059195	134540	134550	729.25	716.34	999.87	754.9	-3.65E-07	0.00082392	0.081282	0.017547	0.80816	1.2374	274310	284540	1440	586.55	638.62	105.06	0.000079669	8.13E-06	0.0073736
211.4	8.49E+03	1688.2	0.00059236	134930	134930	731.07	716.85	1000.4	753.28	-3.65E-07	0.0008188	0.081199	0.017499	0.82853	1.207	274530	284770	1439.9	587.5	639.63	105.13	0.00007898	8.14E-06	0.0073974
211.79	8.72E+03	1687	0.00059277	135310	135320	732.88	717.36	1001	751.66	-3.64E-07	0.00081372	0.081117	0.017452	0.84933	1.1774	274750	285010	1439.7	588.45	640.64	105.21	0.0000783	8.16E-06	0.0074211
212.17	8.95E+03	1685.8	0.00059319	135690	135700	734.68	717.87	1001.5	750.04	-3.63E-07	0.00080869	0.081035	0.017405	0.87055	1.1487	274960	285240	1439.5	589.4	641.64	105.28	0.000077628	8.17E-06	0.0074449
212.55	9.19E+03	1684.6	0.0005936	136080	136080	736.49	718.39	1002.1	748.43	-3.63E-07	0.00080369	0.080952	0.017357	0.8922	1.1208	275180	285480	1439.3	590.36	642.65	105.36	0.000076965	8.19E-06	0.0074687
212.93	9.43E+03	1683.5	0.00059401	136460	136470	738.29	718.9	1002.6	746.82	-3.62E-07	0.00079874	0.080869	0.01731	0.91429	1.0937	275400	285710	1439.2	591.31	643.66	105.43	0.00007631	8.20E-06	0.0074926
213.32	9.68E+03	1682.3	0.00059443	136840	136850	740.09	719.41	1003.2	745.21	-3.62E-07	0.00079383	0.080786	0.017263	0.93682	1.0674	275610	285940	1439	592.26	644.68	105.5	0.000075663	8.22E-06	0.0075164
213.7	9.93E+03	1681.1	0.00059485	137230	137230	741.89	719.93	1003.7	743.6	-3.61E-07	0.00078896	0.080703	0.017215	0.95981	1.0419	275830	286180	1438.9	593.21	645.69	105.58	0.000075024	8.23E-06	0.0075403
214.08	1.02E+04	1679.9	0.00059526	137610	137620	743.68	720.44	1004.3	741.99	-3.60E-07	0.00078413	0.08062	0.017168	0.98326	1.017	276050	286410	1438.7	594.16	646.7	105.65	0.000074393	8.25E-06	0.0075642
214.46	1.05E+04	1678.8	0.00059568	138000	138000	745.48	720.96	1004.9	740.39	-3.60E-07	0.00077934	0.080537	0.017121	1.0072	0.99289	276270	286650	1438.6	595.11	647.71	105.72	0.00007377	8.26E-06	0.0075882
214.85	1.07E+04	1677.6	0.0005961	138380	138390	747.27	721.47	1005.4	738.78	-3.59E-07	0.00077459	0.080453	0.017073	1.0315	0.96942	276490	286880	1438.4	596.06	648.72	105.79	0.000073154	8.28E-06	0.0076121
215.23	1.10E+04	1676.4	0.00059652	138770	138770	749.06	721.99	1006	737.18	-3.58E-07	0.00076988	0.080369	0.017026	1.0564	0.9466	276710	287120	1438.3	597.01	649.74	105.87	0.000072546	8.29E-06	0.0076361
215.61	1.13E+04	1675.2	0.00059694	139150	139160	750.85	722.5	1006.6	735.58	-3.58E-07	0.00076521	0.080286	0.016979	1.0818	0.92442	276930	287350	1438.2	597.96	650.75	105.94	0.000071945	8.31E-06	0.0076602
216	1.16E+04	1674	0.00059736	139540	139540	752.63	723.02	1007.1	733.98	-3.57E-07	0.00076057	0.080202	0.016931	1.1076	0.90286	277150	287590	1438.1	598.91	651.77	106.01	0.000071352	8.32E-06	0.0076842
216.38	1.19E+04	1672.9	0.00059778	139920	139930	754.41	723.53	1007.7	732.39	-3.56E-07	0.00075597	0.080118	0.016884	1.1339	0.88189	277360	287830	1437.9	599.86	652.78	106.08	0.000070765	8.34E-06	0.0077083
216.76	1.22E+04	1671.7	0.0005982	140310	140310	756.2	724.05	1008.3	730.79	-3.56E-07	0.00075141	0.080037	0.016837	1.1608	0.86149	277580	288060	1437.8	600.8	653.8	106.15	0.000070186	8.35E-06	0.0077324
217.14	1.25E+04	1670.5	0.00059863	140690	140700	757.97	724.57	1008.9	729.2	-3.55E-07	0.00074689	0.079954	0.016789	1.1881	0.84165	277800	288300	1437.7	601.75	654.81	106.22	0.000069614	8.37E-06	0.0077565
217.53	1.28E+04	1669.3	0.00059905	141080	141090	759.75	725.09	1009.4	727.61	-3.54E-07	0.0007424	0.079871	0.016742	1.216	0.82235	278020	288540	1437.6	602.7	655.83	106.29	0.000069049	8.38E-06	0.0077806
217.91	1.31E+04	1668.1	0.00059947	141460	141470	761.52	725.6	1010	726.02	-3.53E-07	0.00073795	0.079787	0.016695	1.2444	0.80358	278250	288770	1437.5	603.65	656.85	106.36	0.00006849	8.40E-06	0.0078048
218.29	1.34E+04	1666.9	0.0005999	141850	141860	763.3	726.12	1010.6	724.44	-3.53E-07	0.00073353	0.079703	0.016648	1.2734	0.78531	278470	289010	1437.4	604.6	657.87	106.43	0.000067938	8.41E-06	0.007829
218.67	1.38E+04	1665.8	0.00060033	142240	142250	765.07	726.64	1011.2	722.85	-3.52E-07	0.00072915	0.079619	0.0166	1.3029	0.76753	278690	289250	1437.3	605.54	658.89	106.5	0.000067393	8.43E-06	0.0078532
219.06	1.41E+04	1664.6	0.00060076	142620	142630	766.84	727.16	1011.8	721.27	-3.51E-07	0.0007248	0.079535	0.016553	1.3329	0.75023	278910	289480	1437.2	606.49	659.91	106.57	0.000066854	8.44E-06	0.0078774
219.44	1.44E+04	1663.4	0.00060118	143010	143020	768.6	727.68	1012.4	719.68	-3.51E-07	0.00072049	0.07945	0.016506	1.3635	0.73339	279130	289720	1437.1	607.44	660.93	106.63	0.000066322	8.46E-06	0.0079017
219.82	1.48E+04	1662.2	0.00060161	143400	143410	770.37	728.2	1012.9	718.1	-3.50E-07	0.00071621	0.079366	0.016458	1.3947	0.717	279350	289960	1437	608.39	661.95	106.7	0.000065795	8.47E-06	0.007926
220.2	1.52E+04	1661	0.00060204	143790	143800	772.13	728.72	1013.5	716.52	-3.49E-07	0.00071196	0.079281	0.016411	1.4264	0.70105	279570	290200	1437	609.33	662.97	106.77	0.000065275	8.49E-06	0.0079503
220.59	1.55E+04	1659.8	0.00060248	144180	144180	773.89	729.24	1014.1	714.95	-3.48E-07	0.00070775	0.079196	0.016364	1.4588	0.68551	279790	290430	1436.9	610.28	663.99	106.84	0.000064762	8.50E-06	0.0079746
220.97	1.59E+04	1658.6	0.00060291	144560	144570	775.65	729.76	1014.7	713.37	-3.48E-07	0.00070357	0.079111	0.016317	1.4917	0.67038	280020	290670	1436.8	611.23	665.01	106.9	0.000064254	8.51E-06	0.007999
221.35	1.63E+04	1657.4	0.00060334	144950	144960	777.4	730.28	1015.3	711.8	-3.47E-07	0.00069942	0.079025	0.016269	1.5252	0.65565	280240	290910	1436.8	612.17	666.04	106.97	0.000063752	8.53E-06	0.0080233
221.74	1.67E+04	1656.2	0.00060378	145340	145350	779.15	730.8	1015.9	710.23	-3.46E-07	0.00069531	0.07894	0.016222	1.5593	0.64131	280460	291150	1436.7	613.12	667.06	107.04	0.000063256	8.54E-06	0.0080477
222.12	1.71E+04	1655.1	0.00060421	145730	145740	780.91	731.32	1016.5	708.65	-3.45E-07	0.00069122	0.078854	0.016175	1.5941	0.62733	280690	291390	1436.6	614.06	668.09	107.1	0.000062766	8.56E-06	0.0080722
222.5	1.75E+04	1653.9	0.00060465	146120	146130	782.66	731.84	1017.1	707.09	-3.45E-07	0.00068717	0.078768	0.016128	1.6294	0.61372	280910	291630	1436.6	615.01	669.11	107.17	0.000062281	8.57E-06	0.0080966
222.88	1.79E+04	1652.7	0.00060508	146510	146520	784.4	732.36	1017.7	705.52	-0.000000344	0.00068315	0.078683	0.01608	1.6654	0.60046	281130	291870	1436.5	615.95	670.14	107.23	0.000061803	8.59E-06	0.0081211
223.27	1.83E+04	1651.5	0.00060552	146900	146910	786.15	732.89	1018.3	703.95	-3.43E-07	0.00067916	0.078596	0.016033	1.702	0.58753	281360	292110	1436.5	616.9	671.17	107.3	0.000061329	8.60E-06	0.0081456
223.65	1.87E+04	1650.3	0.00060596	147290	147300	787.89	733.41	1019	702.39	-3.42E-07	0.0006752	0.07851	0.015986	1.7393	0.57494	281580	292350	1436.4	617.84	672.19	107.36	0.000060861	8.62E-06	0.0081701
224.03	1.92E+04	1649.1	0.0006064	147680	147690	789.64	733.93	1019.6	700.82	-3.42E-07	0.00067126	0.078424	0.015939	1.7772	0.56267	281800	292590	1436.4	618.79	673.22	107.42	0.000060399	8.63E-06	0.0081947
224.41	1.96E+04	1647.9	0.00060684	148070	148080	791.38	734.45	1020.2	699.26	-3.41E-07	0.00066736	0.078337	0.015892	1.8158	0.55071	282030	292820	1436.4	619.73	674.25	107.49	0.000059942	8.65E-06	0.0082193
224.8	2.01E+04	1646.7	0.00060728	148460	148470	793.11	734.97	1020.8	697.7	-3.40E-07	0.00066349	0.078251	0.015844	1.8551	0.53906	282250	293060	1436.3	620.68	675.28	107.55	0.00005949	8.66E-06	0.0082438
225.18	2.05E+04	1645.5	0.00060772	148850	148860	794.85	735.5	1021.4	696.14	-3.39E-07	0.00065965	0.078164	0.015797	1.895	0.52769	282480	293300	1436.3	621.62	676.31	107.61	0.000059043	8.68E-06	0.0082685
225.56	2.10E+04	1644.3	0.00060817	149240	149250	796.58	736.02	1022	694.59	-3.39E-07	0.00065583	0.078077	0.01575	1.9357	0.51662	282700	293550	1436.3	622.56	677.34	107.67	0.000058602	8.69E-06	0.0082931
225.94	2.15E+04	1643.1	0.00060861	149630	149640	798.32	736.54	1022.7	693.03	-3.38E-07	0.00065205	0.07799	0.015703	1.977	0.50582	282930	293790	1436.3	623.51	678.38	107.74	0.000058165	8.71E-06	0.0083178
226.33	2.20E+04	1641.9	0.00060906	150020	150030	800.05	737.07	1023.3	691.48	-3.37E-07	0.00064829	0.077903	0.015656	2.019	0.49528	283150	294030	1436.3	624.45	679.41	107.8	0.000057733	8.72E-06	0.0083425
226.71	2.25E+04	1640.7	0.0006095	150410	150430	801.78	737.59	1023.9	689.92	-3.36E-07	0.00064456	0.077815	0.015608	2.0618	0.48501	283380	294270	1436.2	625.39	680.44	107.86	0.000057307	8.74E-06	0.0083672
227.09	2.30E+04	1639.5	0.00060995	150800	150820	803.5	738.11	1024.5	688.37	-3.35E-07	0.00064086	0.077728	0.015561	2.1053	0.475	283600	294510	1436.2	626.33	681.48	107.92	0.000056885	8.75E-06	0.0083919
227.48	2.35E+04	1638.3	0.0006104	151200	151210	805.23	738.64	1025.2	686.82	-3.35E-07	0.00063718	0.07764	0.015514	2.1495	0.46523	283830	294750	1436.2	627.28	682.51	107.98	0.000056467	8.77E-06	0.0084167
227.86	2.40E+04	1637.1	0.00061085	151590	151600	806.95	739.16	1025.8	685.27	-3.34E-07	0.00063354	0.077553	0.015467	2.1944	0.4557	284050	294990	1436.2	628.22	683.55	108.04	0.000056055	8.78E-06	0.0084415
228.24	2.45E+04	1635.9	0.0006113	151980	152000	808.67	739.69	1026.4	683.73	-3.33E-07	0.00062991	0.077465	0.01542	2.2402	0.4464	284280	295230	1436.2	629.16	684.59	108.1	0.000055647	8.80E-06	0.0084663
228.62	2.51E+04	1634.6	0.00061175	152370	152390	810.39	740.21	1027	682.18	-3.32E-07	0.00062632	0.077377	0.015373	2.2866	0.43733	284510	295470	1436.2	630.1	685.62	108.16	0.000055244	8.81E-06	0.0084911
229.01	2.56E+04	1633.4	0.00061221	152770	152780	812.11	740.73	1027.7	680.64	-3.31E-07	0.00062275	0.077289	0.015326	2.3339	0.42847	284730	295710	1436.3	631.04	686.66	108.22	0.000054845	8.83E-06	0.008516
229.39	2.62E+04	1632.2	0.00061266	153160	153180	813.82	741.26	1028.3	679.09	-3.31E-07	0.00061921	0.0772	0.015279	2.3819	0.41984	284960	295960	1436.3	631.98	687.7	108.28	0.000054451	8.84E-06	0.0085409
229.77	2.68E+04	1631	0.00061311	153550	153570	815.54	741.78	1029	677.55	-3.30E-07	0.00061569	0.077112	0.015231	2.4307	0.41141	285190	296200	1436.3	632.93	688.74	108.33	0.000054061	8.86E-06	0.0085658
230.15	2.74E+04	1629.8	0.00061357	153950	153960	817.25	742.31	1029.6	676.01	-3.29E-07	0.0006122	0.077023	0.015184	2.4803	0.40318	285410	296440	1436.3	633.87	689.78	108.39	0.000053675	8.87E-06	0.0085907
230.54	2.79E+04	1628.6	0.00061403	154340	154360	818.96	742.83	1030.2	674.47	-3.28E-07	0.00060873	0.076935	0.015137	2.5307	0.39515	285640	296680	1436.3	634.81	690.83	108.45	0.000053294	8.89E-06	0.0086157
230.92	2.85E+04	1627.4	0.00061448	154730	154750	820.67	743.36	1030.9	672.94	-3.27E-07	0.00060529	0.076846	0.01509	2.5819	0.38731	285870	296930	1436.4	635.75	691.87	108.5	0.000052917	8.90E-06	0.0086407
231.3	2.92E+04	1626.2	0.00061494	155130	155150	822.38	743.88	1031.5	671.4	-3.26E-07	0.00060187	0.076757	0.015043	2.634	0.37966	286100	297170	1436.4	636.69	692.91	108.56	0.000052544	8.92E-06	0.0086657
231.68	2.98E+04	1625	0.0006154	155520	155540	824.08	744.41	1032.2	669.86	-3.26E-07	0.00059848	0.076668	0.014996	2.6869	0.37218	286320	297410	1436.4	637.63	693.96	108.62	0.000052175	8.93E-06	0.0086907
232.07	3.04E+04	1623.7	0.00061586	155920	155940	825.78	744.93	1032.8	668.33	-3.25E-07	0.00059511	0.076579	0.014949	2.7406	0.36489	286550	297650	1436.5	638.56	695	108.67	0.00005181	8.95E-06	0.0087157
232.45	3.11E+04	1622.5	0.00061633	156310	156330	827.49	745.46	1033.5	666.8	-3.24E-07	0.00059176	0.07649	0.014902	2.7952	0.35776	286780	297900	1436.5	639.5	696.05	108.73	0.000051449	8.96E-06	0.0087408
232.83	3.17E+04	1621.3	0.00061679	156710	156730	829.19	745.98	1034.1	665.27	-3.23E-07	0.00058844	0.0764	0.014855	2.8506	0.3508	287010	298140	1436.5	640.44	697.1	108.78	0.000051092	8.98E-06	0.0087659
233.22	3.24E+04	1620.1	0.00061725	157110	157130	830.88	746.51	1034.8	663.74	-3.22E-07	0.00058514	0.076311	0.014808	2.907	0.344	287240	298380	1436.6	641.38	698.14	108.83	0.000050739	8.99E-06	0.008791
233.6	3.31E+04	1618.9	0.00061772	157500	157520	832.58	747.03	1035.4	662.21	-3.21E-07	0.00058187	0.076221	0.014761	2.9642	0.33736	287470	298630	1436.6	642.32	699.19	108.89	0.00005039	9.01E-06	0.0088162
233.98	3.38E+04	1617.6	0.00061819	157900	157920	834.27	747.56	1036.1	660.68	-3.20E-07	0.00057861	0.076131	0.014714	3.0223	0.33088	287700	298870	1436.7	643.26	700.24	108.94	0.000050045	9.02E-06	0.0088414
234.36	3.45E+04	1616.4	0.00061865	158290	158310	835.97	748.09	1036.8	659.15	-3.20E-07	0.00057538	0.076041	0.014667	3.0813	0.32454	287920	299110	1436.7	644.2	701.29	108.99	0.000049703	9.04E-06	0.0088666
234.75	3.52E+04	1615.2	0.00061912	158690	158710	837.66	748.61	1037.4	657.63	-3.19E-07	0.00057218	0.075951	0.01462	3.1412	0.31835	288150	299360	1436.8	645.13	702.35	109.05	0.000049365	9.05E-06	0.0088918
235.13	3.59E+04	1614	0.00061959	159090	159110	839.35	749.14	1038.1	656.11	-3.18E-07	0.00056899	0.075861	0.014573	3.2021	0.3123	288380	299600	1436.9	646.07	703.4	109.1	0.000049031	9.07E-06	0.008917
235.51	3.67E+04	1612.7	0.00062006	159480	159510	841.03	749.66	1038.8	654.58	-3.17E-07	0.00056583	0.075771	0.014526	3.2638	0.30639	288610	299840	1436.9	647.01	704.45	109.15	0.0000487	9.08E-06	0.0089423
235.89	3.74E+04	1611.5	0.00062054	159880	159900	842.72	750.19	1039.4	653.06	-3.16E-07	0.00056269	0.07568	0.014479	3.3266	0.30061	288840	300090	1437	647.94	705.51	109.2	0.000048373	9.10E-06	0.0089676
236.28	3.82E+04	1610.3	0.00062101	160280	160300	844.41	750.71	1040.1	651.54	-3.15E-07	0.00055957	0.07559	0.014432	3.3903	0.29496	289070	300330	1437.1	648.88	706.56	109.25	0.000048049	9.11E-06	0.0089929
236.66	3.90E+04	1609	0.00062149	160680	160700	846.09	751.24	1040.8	650.02	-3.14E-07	0.00055647	0.075499	0.014385	3.4549	0.28944	289300	300580	1437.1	649.82	707.62	109.3	0.000047729	9.13E-06	0.0090183
237.04	3.97E+04	1607.8	0.00062196	161080	161100	847.77	751.77	1041.4	648.5	-3.13E-07	0.00055339	0.075409	0.014338	3.5206	0.28405	289530	300820	1437.2	650.75	708.68	109.35	0.000047412	9.14E-06	0.0090437
237.42	4.05E+04	1606.6	0.00062244	161470	161500	849.45	752.29	1042.1	646.99	-3.12E-07	0.00055033	0.075318	0.014291	3.5872	0.27877	289760	301070	1437.3	651.69	709.74	109.4	0.000047099	9.15E-06	0.0090691
237.81	4.14E+04	1605.4	0.00062292	161870	161900	851.13	752.82	1042.8	645.47	-3.11E-07	0.0005473	0.075227	0.014244	3.6548	0.27361	289990	301310	1437.4	652.62	710.8	109.45	0.000046789	9.17E-06	0.0090945
238.19	4.22E+04	1604.1	0.0006234	162270	162300	852.8	753.34	1043.5	643.96	-3.10E-07	0.00054428	0.075136	0.014197	3.7234	0.26857	290230	301550	1437.5	653.56	711.86	109.49	0.000046482	9.18E-06	0.00912
238.57	4.30E+04	1602.9	0.00062388	162670	162700	854.48	753.87	1044.1	642.44	-3.09E-07	0.00054129	0.075044	0.01415	3.7931	0.26364	290460	301800	1437.5	654.49	712.92	109.54	0.000046179	9.20E-06	0.0091454
238.96	4.39E+04	1601.6	0.00062436	163070	163100	856.15	754.4	1044.8	640.93	-3.09E-07	0.00053831	0.074953	0.014104	3.8638	0.25881	290690	302040	1437.6	655.43	713.98	109.59	0.000045878	9.21E-06	0.0091709
239.34	4.48E+04	1600.4	0.00062484	163470	163500	857.82	754.92	1045.5	639.42	-3.08E-07	0.00053536	0.074862	0.014057	3.9355	0.2541	290920	302290	1437.7	656.36	715.05	109.63	0.000045581	9.23E-06	0.0091965
239.72	4.56E+04	1599.2	0.00062533	163870	163900	859.49	755.45	1046.2	637.91	-3.07E-07	0.00053242	0.07477	0.01401	4.0083	0.24948	291150	302530	1437.8	657.3	716.11	109.68	0.000045287	9.24E-06	0.009222
240.1	4.65E+04	1597.9	0.00062581	164270	164300	861.16	755.97	1046.9	636.4	-3.06E-07	0.00052951	0.074678	0.013963	4.0821	0.24497	291380	302780	1437.9	658.23	717.18	109.73	0.000044996	9.26E-06	0.0092476
240.49	4.74E+04	1596.7	0.0006263	164670	164700	862.83	756.5	1047.6	634.89	-3.05E-07	0.00052661	0.074587	0.013916	4.157	0.24056	291610	303030	1438	659.16	718.24	109.77	0.000044709	9.27E-06	0.0092732
240.87	4.84E+04	1595.4	0.00062679	165070	165100	864.49	757.03	1048.3	633.38	-3.04E-07	0.00052374	0.074495	0.013869	4.233	0.23624	291850	303270	1438.1	660.1	719.31	109.82	0.000044424	9.29E-06	0.0092989
241.25	4.93E+04	1594.2	0.00062728	165470	165500	866.15	757.55	1049	631.88	-3.03E-07	0.00052088	0.074403	0.013822	4.3101	0.23201	292080	303520	1438.2	661.03	720.38	109.86	0.000044142	9.30E-06	0.0093245
241.63	5.03E+04	1592.9	0.00062777	165870	165900	867.82	758.08	1049.7	630.37	-3.02E-07	0.00051804	0.074311	0.013776	4.3884	0.22788	292310	303760	1438.3	661.96	721.45	109.9	0.000043863	9.32E-06	0.0093502
242.02	5.12E+04	1591.7	0.00062826	166270	166310	869.48	758.6	1050.4	628.87	-3.01E-07	0.00051522	0.074218	0.013729	4.4677	0.22383	292540	304010	1438.5	662.89	722.52	109.95	0.000043587	9.33E-06	0.0093759
242.4	5.22E+04	1590.5	0.00062875	166680	166710	871.13	759.13	1051.1	627.36	-3.00E-07	0.00051242	0.074126	0.013682	4.5481	0.21987	292770	304250	1438.6	663.83	723.59	109.99	0.000043314	9.35E-06	0.0094017
242.78	5.32E+04	1589.2	0.00062925	167080	167110	872.79	759.66	1051.8	625.86	-2.99E-07	0.00050964	0.074034	0.013635	4.6298	0.21599	293010	304500	1438.7	664.76	724.67	110.03	0.000043044	9.36E-06	0.0094274
243.16	5.42E+04	1588	0.00062974	167480	167510	874.45	760.18	1052.5	624.36	-2.98E-07	0.00050687	0.073941	0.013589	4.7125	0.2122	293240	304750	1438.8	665.69	725.74	110.07	0.000042776	9.38E-06	0.0094532
243.55	5.52E+04	1586.7	0.00063024	167880	167920	876.1	760.71	1053.2	622.86	-2.97E-07	0.00050412	0.073848	0.013542	4.7965	0.20849	293470	304990	1438.9	666.62	726.82	110.11	0.000042511	9.39E-06	0.0094791
243.93	5.63E+04	1585.4	0.00063074	168290	168320	877.75	761.23	1053.9	621.36	-2.96E-07	0.00050139	0.073756	0.013495	4.8816	0.20485	293710	305240	1439	667.55	727.9	110.15	0.000042249	9.41E-06	0.0095049
244.31	5.74E+04	1584.2	0.00063124	168690	168720	879.41	761.76	1054.6	619.86	-2.95E-07	0.00049868	0.073663	0.013448	4.9679	0.20129	293940	305480	1439.2	668.48	728.97	110.19	0.00004199	9.42E-06	0.0095308
244.7	5.84E+04	1582.9	0.00063174	169090	169130	881.06	762.28	1055.3	618.36	-2.94E-07	0.00049599	0.07357	0.013402	5.0554	0.19781	294170	305730	1439.3	669.41	730.05	110.23	0.000041733	9.44E-06	0.0095567
245.08	5.95E+04	1581.7	0.00063224	169500	169530	882.7	762.81	1056	616.87	-2.93E-07	0.00049331	0.073477	0.013355	5.1441	0.1944	294410	305980	1439.4	670.34	731.13	110.27	0.000041479	9.45E-06	0.0095827
245.46	6.06E+04	1580.4	0.00063275	169900	169940	884.35	763.34	1056.7	615.37	-2.92E-07	0.00049065	0.073384	0.013308	5.234	0.19106	294640	306220	1439.6	671.27	732.22	110.31	0.000041228	9.47E-06	0.0096086
245.84	6.17E+04	1579.2	0.00063325	170300	170340	886	763.86	1057.4	613.88	-2.91E-07	0.00048801	0.07329	0.013262	5.3252	0.18779	294870	306470	1439.7	672.2	733.3	110.35	0.000040979	9.48E-06	0.0096346
246.23	6.29E+04	1577.9	0.00063376	170710	170750	887.64	764.39	1058.1	612.38	-2.89E-07	0.00048538	0.073197	0.013215	5.4177	0.18458	295110	306720	1439.8	673.13	734.38	110.39	0.000040733	9.50E-06	0.0096606
246.61	6.40E+04	1576.6	0.00063426	171110	171150	889.28	764.91	1058.9	610.89	-2.88E-07	0.00048278	0.073103	0.013168	5.5114	0.18144	295340	306960	1440	674.06	735.47	110.42	0.000040489	9.51E-06	0.0096867
246.99	6.52E+04	1575.4	0.00063477	171520	171560	890.92	765.44	1059.6	609.4	-2.87E-07	0.00048018	0.07301	0.013122	5.6064	0.17837	295580	307210	1440.1	674.99	736.56	110.46	0.000040248	9.53E-06	0.0097128
247.37	6.64E+04	1574.1	0.00063528	171920	171960	892.56	765.96	1060.3	607.9	-2.86E-07	0.00047761	0.072916	0.013075	5.7026	0.17536	295810	307460	1440.3	675.91	737.64	110.5	0.000040009	9.54E-06	0.0097389
247.76	6.76E+04	1572.8	0.0006358	172330	172370	894.2	766.49	1061	606.41	-2.85E-07	0.00047505	0.072822	0.013029	5.8002	0.17241	296050	307700	1440.4	676.84	738.73	110.53	0.000039773	9.56E-06	0.0097651
248.14	6.88E+04	1571.6	0.00063631	172730	172780	895.84	767.01	1061.8	604.92	-2.84E-07	0.00047251	0.072728	0.012982	5.8991	0.16952	296280	307950	1440.6	677.77	739.82	110.57	0.000039539	9.57E-06	0.0097912
248.52	7.01E+04	1570.3	0.00063683	173140	173180	897.47	767.54	1062.5	603.43	-2.83E-07	0.00046998	0.072634	0.012935	5.9993	0.16669	296510	308200	1440.7	678.7	740.92	110.6	0.000039307	9.59E-06	0.0098174
248.9	7.14E+04	1569	0.00063734	173550	173590	899.1	768.06	1063.2	601.95	-2.82E-07	0.00046747	0.07254	0.012889	6.1008	0.16391	296750	308440	1440.9	679.62	742.01	110.63	0.000039078	9.60E-06	0.0098437
249.29	7.26E+04	1567.7	0.00063786	173950	174000	900.74	768.59	1064	600.46	-2.81E-07	0.00046497	0.072446	0.012842	6.2038	0.16119	296980	308690	1441	680.55	743.1	110.67	0.000038851	9.62E-06	0.00987
249.67	7.39E+04	1566.5	0.00063838	174360	174410	902.37	769.11	1064.7	598.97	-2.80E-07	0.00046249	0.072352	0.012796	6.308	0.15853	297220	308940	1441.2	681.48	744.2	110.7	0.000038626	9.63E-06	0.0098963
250.05	7.52E+04	1565.2	0.0006389	174770	174810	904	769.64	1065.4	597.49	-2.79E-07	0.00046003	0.072257	0.012749	6.4137	0.15592	297450	309190	1441.4	682.4	745.3	110.73	0.000038403	9.65E-06	0.0099226
250.44	7.66E+04	1563.9	0.00063942	175170	175220	905.62	770.16	1066.2	596	-2.77E-07	0.00045758	0.072163	0.012703	6.5207	0.15336	297690	309430	1441.5	683.33	746.4	110.76	0.000038183	9.66E-06	0.009949
250.82	7.79E+04	1562.6	0.00063995	175580	175630	907.25	770.69	1066.9	594.52	-2.76E-07	0.00045514	0.072068	0.012656	6.6292	0.15085	297930	309680	1441.7	684.25	747.5	110.79	0.000037965	9.67E-06	0.0099754
251.2	7.93E+04	1561.4	0.00064047	175990	176040	908.88	771.21	1067.7	593.03	-2.75E-07	0.00045272	0.071974	0.01261	6.739	0.14839	298160	309930	1441.9	685.18	748.6	110.82	0.00003775	9.69E-06	0.010002
251.58	8.07E+04	1560.1	0.000641	176400	176450	910.5	771.74	1068.4	591.55	-2.74E-07	0.00045032	0.071879	0.012563	6.8503	0.14598	298400	310180	1442	686.1	749.7	110.85	0.000037536	9.70E-06	0.010028
251.97	8.21E+04	1558.8	0.00064153	176810	176860	912.12	772.26	1069.2	590.07	-2.73E-07	0.00044793	0.071784	0.012517	6.9631	0.14361	298630	310420	1442.2	687.03	750.81	110.88	0.000037324	9.72E-06	0.010055
252.35	8.35E+04	1557.5	0.00064206	177210	177270	913.74	772.79	1069.9	588.59	-2.72E-07	0.00044556	0.071689	0.012471	7.0773	0.1413	298870	310670	1442.4	687.95	751.91	110.91	0.000037115	9.73E-06	0.010081
252.73	8.50E+04	1556.2	0.00064259	177620	177680	915.36	773.31	1070.7	587.11	-2.70E-07	0.0004432	0.071594	0.012424	7.1929	0.13903	299110	310920	1442.6	688.88	753.02	110.94	0.000036908	9.75E-06	0.010108
253.11	8.64E+04	1554.9	0.00064312	178030	178090	916.98	773.84	1071.4	585.63	-2.69E-07	0.00044085	0.071499	0.012378	7.3101	0.1368	299340	311170	1442.7	689.8	754.13	110.97	0.000036702	9.76E-06	0.010134
253.5	8.79E+04	1553.6	0.00064365	178440	178500	918.6	774.36	1072.2	584.15	-2.68E-07	0.00043852	0.071403	0.012331	7.4288	0.13461	299580	311410	1442.9	690.72	755.24	110.99	0.000036499	9.78E-06	0.010161
253.88	8.94E+04	1552.3	0.00064419	178850	178910	920.21	774.88	1072.9	582.67	-2.67E-07	0.0004362	0.071308	0.012285	7.5489	0.13247	299810	311660	1443.1	691.65	756.35	111.02	0.000036298	9.79E-06	0.010188
254.26	9.10E+04	1551	0.00064473	179260	179320	921.83	775.41	1073.7	581.19	-2.66E-07	0.0004339	0.071213	0.012239	7.6706	0.13037	300050	311910	1443.3	692.57	757.46	111.05	0.000036099	9.81E-06	0.010214
254.64	9.25E+04	1549.7	0.00064527	179670	179730	923.44	775.93	1074.4	579.71	-2.64E-07	0.00043161	0.071117	0.012192	7.7939	0.12831	300290	312160	1443.5	693.49	758.58	111.07	0.000035902	9.82E-06	0.010241
255.03	9.41E+04	1548.4	0.00064581	180080	180140	925.05	776.46	1075.2	578.23	-2.63E-07	0.00042933	0.071022	0.012146	7.9187	0.12628	300520	312410	1443.7	694.41	759.69	111.09	0.000035706	9.84E-06	0.010268
255.41	9.57E+04	1547.1	0.00064635	180490	180560	926.66	776.98	1076	576.76	-2.62E-07	0.00042707	0.070926	0.0121	8.045	0.1243	300760	312650	1443.9	695.33	760.81	111.12	0.000035513	9.85E-06	0.010295
255.79	9.73E+04	1545.8	0.00064689	180910	180970	928.27	777.5	1076.7	575.28	-2.61E-07	0.00042482	0.07083	0.012054	8.173	0.12235	301000	312900	1444.1	696.26	761.93	111.14	0.000035322	9.87E-06	0.010322
256.18	9.89E+04	1544.5	0.00064744	181320	181380	929.88	778.03	1077.5	573.81	-2.60E-07	0.00042259	0.070734	0.012007	8.3025	0.12044	301230	313150	1444.2	697.18	763.05	111.16	0.000035132	9.88E-06	0.010349
256.56	1.01E+05	1543.2	0.00064799	181730	181790	931.49	778.55	1078.3	572.33	-2.58E-07	0.00042037	0.070638	0.011961	8.4337	0.11857	301470	313400	1444.4	698.1	764.18	111.19	0.000034944	9.90E-06	0.010375
256.94	1.02E+05	1541.9	0.00064854	182140	182210	933.09	779.07	1079.1	570.86	-2.57E-07	0.00041816	0.070542	0.011915	8.5665	0.11673	301710	313640	1444.6	699.02	765.3	111.21	0.000034759	9.91E-06	0.010402
257.32	1.04E+05	1540.6	0.00064909	182550	182620	934.7	779.6	1079.8	569.39	-2.56E-07	0.00041597	0.070446	0.011869	8.7009	0.11493	301950	313890	1444.8	699.94	766.43	111.23	0.000034575	9.93E-06	0.010429
257.71	1.06E+05	1539.3	0.00064964	182970	183030	936.3	780.12	1080.6	567.91	-2.54E-07	0.00041378	0.07035	0.011823	8.837	0.11316	302180	314140	1445	700.86	767.55	111.25	0.000034393	9.94E-06	0.010456
258.09	1.07E+05	1538	0.00065019	183380	183450	937.9	780.64	1081.4	566.44	-2.53E-07	0.00041161	0.070253	0.011776	8.9748	0.11142	302420	314390	1445.2	701.78	768.68	111.27	0.000034212	9.96E-06	0.010484
258.47	1.09E+05	1536.7	0.00065075	183790	183860	939.5	781.17	1082.2	564.97	-2.52E-07	0.00040946	0.070157	0.01173	9.1143	0.10972	302660	314640	1445.5	702.69	769.82	111.29	0.000034034	9.97E-06	0.010511
258.85	1.11E+05	1535.4	0.00065131	184210	184280	941.1	781.69	1083	563.5	-2.51E-07	0.00040732	0.070061	0.011684	9.2554	0.10804	302900	314880	1445.7	703.61	770.95	111.31	0.000033857	9.99E-06	0.010538
259.24	1.13E+05	1534.1	0.00065187	184620	184690	942.7	782.21	1083.8	562.03	-2.49E-07	0.00040518	0.069964	0.011638	9.3983	0.1064	303130	315130	1445.9	704.53	772.08	111.32	0.000033682	1.00E-05	0.010565
259.62	1.15E+05	1532.7	0.00065243	185030	185110	944.29	782.74	1084.6	560.56	-2.48E-07	0.00040307	0.069867	0.011592	9.5429	0.10479	303370	315380	1446.1	705.45	773.22	111.34	0.000033508	1.00E-05	0.010592
260	1.16E+05	1531.4	0.00065299	185450	185520	945.89	783.26	1085.4	559.09	-2.47E-07	0.00040096	0.069771	0.011546	9.6893	0.10321	303610	315630	1446.3	706.37	774.36	111.36	0.000033336	1.00E-05	0.01062
260.38	1.18E+05	1530.1	0.00065355	185860	185940	947.48	783.78	1086.2	557.62	-2.45E-07	0.00039887	0.069674	0.0115	9.8374	0.10165	303850	315880	1446.5	707.28	775.5	111.37	0.000033166	1.00E-05	0.010647
260.77	1.20E+05	1528.8	0.00065412	186280	186360	949.08	784.31	1087	556.15	-2.44E-07	0.00039679	0.069577	0.011454	9.9873	0.10013	304090	316130	1446.7	708.2	776.64	111.39	0.000032998	1.01E-05	0.010674
261.15	1.22E+05	1527.4	0.00065469	186690	186770	950.67	784.83	1087.8	554.69	-2.43E-07	0.00039472	0.06948	0.011408	10.139	0.098629	304330	316370	1446.9	709.12	777.78	111.4	0.000032831	1.01E-05	0.010702
261.53	1.24E+05	1526.1	0.00065526	187110	187190	952.26	785.35	1088.6	553.22	-2.41E-07	0.00039266	0.069383	0.011362	10.293	0.097158	304560	316620	1447.2	710.03	778.93	111.42	0.000032666	1.01E-05	0.010729
261.92	1.26E+05	1524.8	0.00065583	187520	187610	953.85	785.87	1089.4	551.75	-2.40E-07	0.00039061	0.069286	0.011316	10.448	0.095714	304800	316870	1447.4	710.95	780.08	111.43	0.000032503	1.01E-05	0.010757
262.3	1.28E+05	1523.5	0.0006564	187940	188020	955.44	786.4	1090.2	550.29	-2.38E-07	0.00038858	0.069189	0.01127	10.605	0.094295	305040	317120	1447.6	711.86	781.23	111.44	0.000032341	1.01E-05	0.010784
262.68	1.30E+05	1522.1	0.00065698	188360	188440	957.02	786.92	1091	548.82	-2.37E-07	0.00038656	0.069091	0.011224	10.764	0.092902	305280	317370	1447.8	712.78	782.38	111.46	0.00003218	1.01E-05	0.010812
263.06	1.32E+05	1520.8	0.00065756	188770	188860	958.61	787.44	1091.8	547.35	-2.36E-07	0.00038455	0.068994	0.011178	10.925	0.091533	305520	317610	1448	713.69	783.53	111.47	0.000032021	1.02E-05	0.010839
263.45	1.34E+05	1519.4	0.00065814	189190	189280	960.19	787.96	1092.6	545.89	-2.34E-07	0.00038255	0.068896	0.011132	11.088	0.090189	305760	317860	1448.3	714.61	784.69	111.48	0.000031864	1.02E-05	0.010867
263.83	1.36E+05	1518.1	0.00065872	189610	189700	961.78	788.48	1093.4	544.42	-2.33E-07	0.00038056	0.068799	0.011086	11.252	0.088869	306000	318110	1448.5	715.52	785.85	111.49	0.000031708	1.02E-05	0.010895
264.21	1.38E+05	1516.8	0.0006593	190030	190120	963.36	789.01	1094.3	542.96	-2.31E-07	0.00037858	0.068701	0.01104	11.419	0.087572	306230	318360	1448.7	716.44	787.01	111.5	0.000031554	1.02E-05	0.010923
264.59	1.41E+05	1515.4	0.00065988	190440	190540	964.94	789.53	1095.1	541.5	-2.30E-07	0.00037662	0.068604	0.010995	11.588	0.086298	306470	318610	1449	717.35	788.17	111.51	0.000031402	1.02E-05	0.01095
264.98	1.43E+05	1514.1	0.00066047	190860	190960	966.52	790.05	1095.9	540.03	-2.28E-07	0.00037467	0.068506	0.010949	11.758	0.085047	306710	318850	1449.2	718.26	789.33	111.51	0.00003125	1.02E-05	0.010978
265.36	1.45E+05	1512.7	0.00066106	191280	191380	968.1	790.57	1096.7	538.57	-2.27E-07	0.00037272	0.068408	0.010903	11.931	0.083817	306950	319100	1449.4	719.18	790.5	111.52	0.0000311	1.02E-05	0.011006
265.74	1.47E+05	1511.4	0.00066165	191700	191800	969.68	791.09	1097.6	537.11	-2.26E-07	0.00037079	0.06831	0.010857	12.105	0.082609	307190	319350	1449.7	720.09	791.67	111.53	0.000030952	1.03E-05	0.011034
266.12	1.49E+05	1510	0.00066224	192120	192220	971.25	791.61	1098.4	535.64	-2.24E-07	0.00036887	0.068212	0.010812	12.282	0.081421	307430	319600	1449.9	721	792.84	111.53	0.000030805	1.03E-05	0.011062
266.51	1.52E+05	1508.7	0.00066284	192540	192640	972.83	792.14	1099.2	534.18	-2.23E-07	0.00036696	0.068114	0.010766	12.46	0.080255	307670	319850	1450.1	721.91	794.01	111.54	0.00003066	1.03E-05	0.01109
266.89	1.54E+05	1507.3	0.00066343	192960	193060	974.4	792.66	1100.1	532.72	-2.21E-07	0.00036506	0.068016	0.01072	12.641	0.079108	307910	320090	1450.4	722.82	795.18	111.54	0.000030516	1.03E-05	0.011119
267.27	1.56E+05	1506	0.00066403	193380	193480	975.97	793.18	1100.9	531.26	-2.20E-07	0.00036317	0.067918	0.010674	12.824	0.077981	308150	320340	1450.6	723.73	796.36	111.55	0.000030373	1.03E-05	0.011147
267.66	1.59E+05	1504.6	0.00066463	193800	193900	977.55	793.7	1101.8	529.8	-2.18E-07	0.0003613	0.06782	0.010629	13.008	0.076874	308390	320590	1450.9	724.65	797.54	111.55	0.000030232	1.03E-05	0.011175
268.04	1.61E+05	1503.2	0.00066524	194220	194330	979.12	794.22	1102.6	528.34	-2.16E-07	0.00035943	0.067721	0.010583	13.195	0.075785	308630	320840	1451.1	725.56	798.72	111.55	0.000030092	1.03E-05	0.011203
268.42	1.64E+05	1501.9	0.00066584	194640	194750	980.69	794.74	1103.5	526.88	-2.15E-07	0.00035757	0.067623	0.010538	13.384	0.074715	308870	321090	1451.4	726.47	799.91	111.55	0.000029953	1.04E-05	0.011232
268.8	1.66E+05	1500.5	0.00066645	195060	195170	982.26	795.26	1104.3	525.42	-2.13E-07	0.00035572	0.067525	0.010492	13.575	0.073664	309110	321330	1451.6	727.38	801.09	111.56	0.000029816	1.04E-05	0.01126
269.19	1.68E+05	1499.1	0.00066706	195480	195600	983.82	795.78	1105.2	523.96	-2.12E-07	0.00035389	0.067426	0.010446	13.768	0.07263	309350	321580	1451.9	728.29	802.28	111.56	0.00002968	1.04E-05	0.011288
269.57	1.71E+05	1497.8	0.00066767	195900	196020	985.39	796.31	1106	522.5	-2.10E-07	0.00035206	0.067328	0.010401	13.964	0.071614	309590	321830	1452.1	729.19	803.47	111.56	0.000029546	1.04E-05	0.011317
269.95	1.74E+05	1496.4	0.00066828	196330	196440	986.96	796.83	1106.9	521.04	-2.09E-07	0.00035025	0.067229	0.010355	14.161	0.070614	309820	322080	1452.4	730.1	804.67	111.56	0.000029412	1.04E-05	0.011346
270.33	1.76E+05	1495	0.00066889	196750	196870	988.52	797.35	1107.8	519.58	-2.07E-07	0.00034844	0.06713	0.01031	14.361	0.069632	310060	322330	1452.6	731.01	805.86	111.55	0.00002928	1.04E-05	0.011374
270.72	1.79E+05	1493.6	0.00066951	197170	197290	990.08	797.87	1108.6	518.12	-2.05E-07	0.00034664	0.067031	0.010264	14.563	0.068666	310300	322570	1452.9	731.92	807.06	111.55	0.00002915	1.05E-05	0.011403
271.1	1.81E+05	1492.2	0.00067013	197600	197720	991.65	798.39	1109.5	516.66	-2.04E-07	0.00034486	0.066933	0.010219	14.768	0.067716	310540	322820	1453.1	732.83	808.26	111.55	0.00002902	1.05E-05	0.011432
271.48	1.84E+05	1490.9	0.00067075	198020	198140	993.21	798.91	1110.4	515.2	-2.02E-07	0.00034308	0.066834	0.010174	14.974	0.066782	310780	323070	1453.4	733.73	809.47	111.54	0.000028892	1.05E-05	0.01146
271.86	1.87E+05	1489.5	0.00067138	198440	198570	994.77	799.43	1111.3	513.74	-2.00E-07	0.00034131	0.066735	0.010128	15.183	0.065864	311020	323320	1453.6	734.64	810.67	111.54	0.000028765	1.05E-05	0.011489
272.25	1.89E+05	1488.1	0.000672	198870	198990	996.33	799.95	1112.1	512.29	-1.99E-07	0.00033956	0.066636	0.010083	15.394	0.064961	311260	323560	1453.9	735.55	811.88	111.53	0.000028639	1.05E-05	0.011518
272.63	1.92E+05	1486.7	0.00067263	199290	199420	997.88	800.47	1113	510.83	-1.97E-07	0.00033781	0.066537	0.010037	15.607	0.064072	311500	323810	1454.1	736.45	813.1	111.53	0.000028515	1.05E-05	0.011547
273.01	1.95E+05	1485.3	0.00067326	199720	199850	999.44	800.99	1113.9	509.37	-1.95E-07	0.00033607	0.066437	0.0099922	15.823	0.063198	311740	324060	1454.4	737.36	814.31	111.52	0.000028391	1.05E-05	0.011576
273.4	1.98E+05	1483.9	0.0006739	200140	200270	1001	801.51	1114.8	507.91	-1.94E-07	0.00033434	0.066338	0.0099469	16.041	0.062339	311980	324300	1454.7	738.27	815.53	111.51	0.000028269	1.06E-05	0.011605
273.78	2.00E+05	1482.5	0.00067453	200570	200700	1002.6	802.03	1115.7	506.46	-1.92E-07	0.00033262	0.066239	0.0099016	16.262	0.061494	312220	324550	1454.9	739.17	816.75	111.51	0.000028148	1.06E-05	0.011635
274.16	2.03E+05	1481.1	0.00067517	200990	201130	1004.1	802.55	1116.6	505	-1.90E-07	0.00033091	0.06614	0.0098564	16.485	0.060662	312460	324800	1455.2	740.08	817.97	111.5	0.000028028	1.06E-05	0.011664
274.54	2.06E+05	1479.7	0.00067581	201420	201560	1005.7	803.07	1117.5	503.54	-1.89E-07	0.00032921	0.06604	0.0098111	16.71	0.059844	312700	325050	1455.5	740.98	819.2	111.49	0.00002791	1.06E-05	0.011693
274.93	2.09E+05	1478.3	0.00067645	201840	201990	1007.2	803.59	1118.4	502.08	-1.87E-07	0.00032752	0.065941	0.0097659	16.938	0.059039	312950	325290	1455.7	741.89	820.43	111.48	0.000027792	1.06E-05	0.011723
275.31	2.12E+05	1476.9	0.0006771	202270	202410	1008.8	804.11	1119.3	500.63	-1.85E-07	0.00032583	0.065841	0.0097208	17.168	0.058247	313190	325540	1456	742.79	821.66	111.46	0.000027676	1.06E-05	0.011752
275.69	2.15E+05	1475.5	0.00067774	202700	202840	1010.3	804.63	1120.2	499.17	-1.83E-07	0.00032416	0.065742	0.0096756	17.401	0.057468	313430	325790	1456.3	743.69	822.9	111.45	0.000027561	1.07E-05	0.011782
276.07	2.18E+05	1474.1	0.00067839	203120	203270	1011.9	805.15	1121.1	497.71	-1.81E-07	0.00032249	0.065642	0.0096305	17.636	0.056702	313670	326030	1456.5	744.6	824.13	111.44	0.000027447	1.07E-05	0.011811
276.46	2.21E+05	1472.7	0.00067904	203550	203700	1013.4	805.67	1122	496.26	-1.80E-07	0.00032084	0.065543	0.0095854	17.874	0.055947	313910	326280	1456.8	745.5	825.38	111.43	0.000027334	1.07E-05	0.011841
276.84	2.24E+05	1471.2	0.0006797	203980	204130	1015	806.19	1123	494.8	-1.78E-07	0.00031919	0.065443	0.0095404	18.114	0.055205	314150	326530	1457.1	746.4	826.62	111.41	0.000027222	1.07E-05	0.011871
277.22	2.27E+05	1469.8	0.00068035	204410	204560	1016.5	806.71	1123.9	493.35	-1.76E-07	0.00031755	0.065343	0.0094954	18.357	0.054475	314390	326770	1457.3	747.31	827.87	111.4	0.000027111	1.07E-05	0.011901
277.6	2.31E+05	1468.4	0.00068101	204840	204990	1018.1	807.23	1124.8	491.89	-1.74E-07	0.00031592	0.065243	0.0094504	18.603	0.053756	314630	327020	1457.6	748.21	829.12	111.38	0.000027001	1.07E-05	0.01193
277.99	2.34E+05	1467	0.00068168	205270	205430	1019.6	807.75	1125.7	490.43	-1.72E-07	0.0003143	0.065143	0.0094054	18.851	0.053049	314870	327270	1457.9	749.11	830.37	111.36	0.000026893	1.07E-05	0.01196
278.37	2.37E+05	1465.5	0.00068234	205700	205860	1021.1	808.27	1126.7	488.98	-1.70E-07	0.00031269	0.065044	0.0093604	19.101	0.052352	315110	327510	1458.2	750.01	831.63	111.35	0.000026785	1.08E-05	0.01199
278.75	2.40E+05	1464.1	0.00068301	206120	206290	1022.7	808.79	1127.6	487.52	-1.68E-07	0.00031108	0.064944	0.0093155	19.355	0.051667	315350	327760	1458.4	750.91	832.89	111.33	0.000026679	1.08E-05	0.012021
279.14	2.43E+05	1462.7	0.00068368	206550	206720	1024.2	809.31	1128.6	486.06	-1.66E-07	0.00030948	0.064844	0.0092706	19.611	0.050992	315590	328000	1458.7	751.81	834.16	111.31	0.000026573	1.08E-05	0.012051
279.52	2.47E+05	1461.2	0.00068435	206980	207150	1025.8	809.83	1129.5	484.61	-1.65E-07	0.0003079	0.064743	0.0092258	19.87	0.050328	315830	328250	1459	752.71	835.42	111.29	0.000026469	1.08E-05	0.012081
279.9	2.50E+05	1459.8	0.00068502	207420	207590	1027.3	810.35	1130.5	483.15	-1.63E-07	0.00030632	0.064643	0.0091809	20.131	0.049675	316070	328490	1459.3	753.62	836.7	111.27	0.000026365	1.08E-05	0.012112
280.28	2.54E+05	1458.4	0.0006857	207850	208020	1028.8	810.87	1131.4	481.7	-1.61E-07	0.00030475	0.064543	0.0091361	20.395	0.049031	316310	328740	1459.6	754.52	837.97	111.25	0.000026263	1.08E-05	0.012142
280.67	2.57E+05	1456.9	0.00068638	208280	208450	1030.4	811.38	1132.4	480.24	-1.59E-07	0.00030318	0.064443	0.0090914	20.662	0.048398	316550	328990	1459.8	755.41	839.25	111.22	0.000026162	1.09E-05	0.012173
281.05	2.60E+05	1455.5	0.00068706	208710	208890	1031.9	811.9	1133.3	478.78	-1.57E-07	0.00030163	0.064343	0.0090466	20.932	0.047774	316790	329230	1460.1	756.31	840.53	111.2	0.000026061	1.09E-05	0.012203
281.43	2.64E+05	1454	0.00068775	209140	209320	1033.5	812.42	1134.3	477.33	-1.55E-07	0.00030008	0.064242	0.0090019	21.205	0.04716	317030	329480	1460.4	757.21	841.82	111.18	0.000025962	1.09E-05	0.012234
281.81	2.67E+05	1452.6	0.00068843	209570	209760	1035	812.94	1135.3	475.87	-1.53E-07	0.00029854	0.064142	0.0089572	21.48	0.046555	317270	329720	1460.7	758.11	843.11	111.15	0.000025863	1.09E-05	0.012265
282.2	2.71E+05	1451.1	0.00068912	210010	210190	1036.5	813.46	1136.2	474.42	-1.51E-07	0.00029701	0.064042	0.0089125	21.758	0.045959	317510	329970	1461	759.01	844.4	111.13	0.000025766	1.09E-05	0.012296
282.58	2.75E+05	1449.7	0.00068982	210440	210630	1038.1	813.98	1137.2	472.96	-1.48E-07	0.00029549	0.063941	0.0088679	22.04	0.045373	317750	330210	1461.2	759.91	845.7	111.1	0.000025669	1.09E-05	0.012327
282.96	2.78E+05	1448.2	0.00069051	210870	211060	1039.6	814.5	1138.2	471.5	-1.46E-07	0.00029397	0.063841	0.0088233	22.324	0.044796	317990	330460	1461.5	760.81	847	111.07	0.000025574	1.10E-05	0.012358
283.34	2.82E+05	1446.7	0.00069121	211310	211500	1041.1	815.02	1139.2	470.05	-1.44E-07	0.00029246	0.06374	0.0087788	22.611	0.044227	318230	330700	1461.8	761.71	848.31	111.04	0.000025479	1.10E-05	0.012389
283.73	2.86E+05	1445.3	0.00069192	211740	211940	1042.7	815.54	1140.2	468.59	-1.42E-07	0.00029096	0.06364	0.0087342	22.901	0.043667	318470	330950	1462.1	762.6	849.62	111.02	0.000025386	1.10E-05	0.01242
284.11	2.89E+05	1443.8	0.00069262	212170	212370	1044.2	816.06	1141.2	467.13	-1.40E-07	0.00028947	0.063539	0.0086897	23.194	0.043115	318710	331190	1462.4	763.5	850.93	110.99	0.000025293	1.10E-05	0.012452
284.49	2.93E+05	1442.3	0.00069333	212610	212810	1045.7	816.58	1142.2	465.68	-1.38E-07	0.00028798	0.063439	0.0086453	23.49	0.042572	318950	331440	1462.7	764.4	852.25	110.95	0.000025201	1.10E-05	0.012483
284.88	2.97E+05	1440.8	0.00069404	213040	213250	1047.2	817.1	1143.2	464.22	-1.36E-07	0.00028651	0.063338	0.0086008	23.789	0.042037	319190	331680	1463	765.3	853.57	110.92	0.00002511	1.10E-05	0.012515
285.26	3.01E+05	1439.4	0.00069475	213480	213690	1048.8	817.62	1144.2	462.76	-1.33E-07	0.00028504	0.063237	0.0085564	24.091	0.04151	319430	331920	1463.3	766.19	854.9	110.89	0.00002502	1.10E-05	0.012546
285.64	3.05E+05	1437.9	0.00069547	213910	214130	1050.3	818.14	1145.2	461.3	-1.31E-07	0.00028357	0.063136	0.008512	24.396	0.04099	319670	332170	1463.5	767.09	856.23	110.86	0.000024931	1.11E-05	0.012578
286.02	3.09E+05	1436.4	0.00069619	214350	214570	1051.8	818.66	1146.2	459.85	-1.29E-07	0.00028212	0.063036	0.0084677	24.704	0.040479	319910	332410	1463.8	767.98	857.57	110.82	0.000024843	1.11E-05	0.01261
286.41	3.13E+05	1434.9	0.00069691	214790	215000	1053.3	819.18	1147.2	458.39	-1.27E-07	0.00028067	0.062935	0.0084234	25.016	0.039975	320150	332660	1464.1	768.88	858.91	110.79	0.000024756	1.11E-05	0.012642
286.79	3.17E+05	1433.4	0.00069764	215220	215440	1054.9	819.7	1148.2	456.93	-1.24E-07	0.00027923	0.062834	0.0083791	25.33	0.039478	320390	332900	1464.4	769.78	860.25	110.75	0.000024669	1.11E-05	0.012674
287.17	3.21E+05	1431.9	0.00069836	215660	215880	1056.4	820.22	1149.3	455.47	-1.22E-07	0.0002778	0.062733	0.0083348	25.648	0.038989	320630	333140	1464.7	770.67	861.6	110.72	0.000024584	1.11E-05	0.012706
287.55	3.25E+05	1430.4	0.0006991	216100	216330	1057.9	820.74	1150.3	454.02	-1.20E-07	0.00027637	0.062632	0.0082906	25.969	0.038507	320870	333390	1465	771.57	862.96	110.68	0.000024499	1.11E-05	0.012738
287.94	3.29E+05	1428.9	0.00069983	216540	216770	1059.4	821.26	1151.4	452.56	-1.18E-07	0.00027495	0.062531	0.0082465	26.294	0.038032	321110	333630	1465.3	772.46	864.32	110.64	0.000024415	1.12E-05	0.012771
288.32	3.33E+05	1427.4	0.00070057	216970	217210	1061	821.77	1152.4	451.1	-1.15E-07	0.00027354	0.06243	0.0082023	26.621	0.037564	321350	333870	1465.6	773.36	865.68	110.6	0.000024333	1.12E-05	0.012803
288.7	3.37E+05	1425.9	0.00070131	217410	217650	1062.5	822.29	1153.5	449.64	-1.13E-07	0.00027213	0.062329	0.0081582	26.952	0.037103	321590	334110	1465.9	774.25	867.05	110.56	0.00002425	1.12E-05	0.012836
289.08	3.42E+05	1424.4	0.00070205	217850	218090	1064	822.81	1154.5	448.18	-1.10E-07	0.00027073	0.062228	0.0081141	27.286	0.036649	321830	334360	1466.2	775.14	868.43	110.52	0.000024169	1.12E-05	0.012869
289.47	3.46E+05	1422.9	0.0007028	218290	218530	1065.5	823.33	1155.6	446.72	-0.000000108	0.00026934	0.062127	0.0080701	27.624	0.036201	322070	334600	1466.5	776.04	869.81	110.48	0.000024089	1.12E-05	0.012901
289.85	3.50E+05	1421.4	0.00070355	218730	218980	1067	823.85	1156.6	445.26	-1.06E-07	0.00026796	0.062026	0.0080261	27.965	0.035759	322310	334840	1466.8	776.93	871.19	110.43	0.000024009	1.12E-05	0.012934
290.23	3.55E+05	1419.8	0.0007043	219170	219420	1068.6	824.37	1157.7	443.8	-1.03E-07	0.00026658	0.061925	0.0079821	28.309	0.035324	322550	335080	1467.1	777.83	872.58	110.39	0.000023931	1.13E-05	0.012968
290.62	3.59E+05	1418.3	0.00070506	219610	219860	1070.1	824.89	1158.8	442.34	-1.01E-07	0.00026521	0.061823	0.0079382	28.657	0.034895	322790	335320	1467.4	778.72	873.98	110.34	0.000023853	1.13E-05	0.013001
291	3.64E+05	1416.8	0.00070582	220050	220310	1071.6	825.41	1159.9	440.88	-9.81E-08	0.00026384	0.061722	0.0078943	29.008	0.034473	323030	335570	1467.7	779.61	875.38	110.3	0.000023775	1.13E-05	0.013034
291.38	3.68E+05	1415.3	0.00070659	220490	220750	1073.1	825.93	1160.9	439.42	-9.56E-08	0.00026248	0.061621	0.0078504	29.363	0.034056	323270	335810	1468	780.51	876.78	110.25	0.000023699	1.13E-05	0.013068
291.76	3.73E+05	1413.7	0.00070735	220930	221200	1074.6	826.46	1162	437.96	-9.30E-08	0.00026113	0.06152	0.0078066	29.722	0.033646	323510	336050	1468.3	781.4	878.2	110.2	0.000023624	1.13E-05	0.013101
292.15	3.77E+05	1412.2	0.00070813	221380	221640	1076.1	826.98	1163.1	436.5	-9.04E-08	0.00025979	0.061418	0.0077628	30.084	0.033241	323750	336290	1468.6	782.29	879.62	110.16	0.000023549	1.13E-05	0.013135
292.53	3.82E+05	1410.6	0.0007089	221820	222090	1077.7	827.5	1164.2	435.04	-8.78E-08	0.00025845	0.061317	0.007719	30.449	0.032842	323990	336530	1468.9	783.19	881.04	110.11	0.000023475	1.14E-05	0.013169
292.91	3.87E+05	1409.1	0.00070968	222260	222540	1079.2	828.02	1165.4	433.58	-8.52E-08	0.00025712	0.061216	0.0076753	30.818	0.032448	324230	336770	1469.2	784.08	882.47	110.06	0.000023402	1.14E-05	0.013203
293.29	3.91E+05	1407.5	0.00071046	222700	222980	1080.7	828.54	1166.5	432.11	-8.26E-08	0.00025579	0.061114	0.0076316	31.191	0.03206	324470	337010	1469.5	784.97	883.9	110	0.00002333	1.14E-05	0.013237
293.68	3.96E+05	1406	0.00071124	223150	223430	1082.2	829.06	1167.6	430.65	-7.99E-08	0.00025447	0.061013	0.007588	31.568	0.031678	324700	337250	1469.8	785.86	885.35	109.95	0.000023258	1.14E-05	0.013271
294.06	4.01E+05	1404.4	0.00071203	223590	223880	1083.7	829.58	1168.7	429.19	-7.72E-08	0.00025316	0.060912	0.0075443	31.948	0.031301	324940	337490	1470.1	786.76	886.8	109.9	0.000023187	1.14E-05	0.013305
294.44	4.06E+05	1402.9	0.00071283	224030	224320	1085.2	830.1	1169.8	427.73	-7.44E-08	0.00025185	0.06081	0.0075008	32.332	0.030929	325180	337730	1470.4	787.65	888.25	109.84	0.000023117	1.14E-05	0.01334
294.82	4.11E+05	1401.3	0.00071362	224480	224770	1086.7	830.62	1171	426.26	-7.17E-08	0.00025055	0.060709	0.0074572	32.72	0.030562	325420	337970	1470.7	788.54	889.71	109.79	0.000023048	1.15E-05	0.013375
295.21	4.16E+05	1399.7	0.00071442	224920	225220	1088.2	831.14	1172.1	424.8	-6.89E-08	0.00024926	0.060607	0.0074137	33.112	0.030201	325660	338210	1471	789.43	891.18	109.73	0.000022979	1.15E-05	0.01341
295.59	4.21E+05	1398.2	0.00071522	225370	225670	1089.7	831.66	1173.3	423.33	-6.61E-08	0.00024797	0.060506	0.0073703	33.508	0.029844	325900	338450	1471.3	790.32	892.65	109.68	0.000022912	1.15E-05	0.013445
295.97	4.26E+05	1396.6	0.00071603	225820	226120	1091.2	832.19	1174.4	421.87	-6.33E-08	0.00024669	0.060404	0.0073269	33.907	0.029492	326140	338690	1471.6	791.21	894.13	109.62	0.000022844	1.15E-05	0.01348
296.36	4.31E+05	1395	0.00071684	226260	226570	1092.8	832.71	1175.6	420.4	-6.04E-08	0.00024541	0.060303	0.0072835	34.31	0.029146	326370	338930	1471.9	792.11	895.62	109.56	0.000022778	1.15E-05	0.013515
296.74	4.36E+05	1393.4	0.00071766	226710	227020	1094.3	833.23	1176.8	418.94	-5.75E-08	0.00024414	0.060201	0.0072402	34.718	0.028804	326610	339170	1472.2	793	897.12	109.5	0.000022713	1.15E-05	0.01355
297.12	4.41E+05	1391.8	0.00071848	227150	227470	1095.8	833.75	1178	417.47	-5.46E-08	0.00024288	0.0601	0.0071969	35.129	0.028466	326850	339410	1472.5	793.89	898.62	109.44	0.000022648	1.16E-05	0.013586
297.5	4.46E+05	1390.2	0.0007193	227600	227920	1097.3	834.27	1179.1	416	-5.16E-08	0.00024162	0.059998	0.0071536	35.545	0.028134	327090	339640	1472.8	794.78	900.13	109.37	0.000022584	1.16E-05	0.013622
297.89	4.52E+05	1388.6	0.00072013	228050	228370	1098.8	834.8	1180.3	414.54	-4.86E-08	0.00024037	0.059897	0.0071104	35.964	0.027805	327330	339880	1473.1	795.67	901.65	109.31	0.00002252	1.16E-05	0.013658
298.27	4.57E+05	1387	0.00072096	228500	228830	1100.3	835.32	1181.5	413.07	-4.56E-08	0.00023912	0.059795	0.0070672	36.388	0.027482	327560	340120	1473.4	796.56	903.17	109.25	0.000022458	1.16E-05	0.013694
298.65	4.62E+05	1385.4	0.00072179	228950	229280	1101.8	835.84	1182.7	411.6	-4.26E-08	0.00023788	0.059693	0.0070241	36.816	0.027162	327800	340360	1473.7	797.45	904.7	109.18	0.000022396	1.16E-05	0.01373
299.03	4.68E+05	1383.8	0.00072263	229390	229730	1103.3	836.36	1183.9	410.13	-3.95E-08	0.00023664	0.059592	0.006981	37.248	0.026847	328040	340590	1474	798.34	906.24	109.12	0.000022334	1.16E-05	0.013766
299.42	4.73E+05	1382.2	0.00072347	229840	230190	1104.8	836.89	1185.2	408.66	-3.64E-08	0.00023541	0.05949	0.0069379	37.684	0.026536	328280	340830	1474.3	799.24	907.79	109.05	0.000022274	1.17E-05	0.013803
299.8	4.79E+05	1380.6	0.00072432	230290	230640	1106.3	837.41	1186.4	407.19	-3.33E-08	0.00023419	0.059389	0.0068949	38.125	0.02623	328510	341070	1474.6	800.13	909.35	108.98	0.000022214	1.17E-05	0.013839
300.18	4.84E+05	1379	0.00072517	230740	231090	1107.8	837.93	1187.6	405.72	-3.01E-08	0.00023297	0.059287	0.0068519	38.57	0.025927	328750	341300	1474.9	801.02	910.91	108.91	0.000022155	1.17E-05	0.013876
300.56	4.90E+05	1377.4	0.00072603	231190	231550	1109.3	838.46	1188.9	404.25	-2.69E-08	0.00023176	0.059185	0.006809	39.019	0.025629	328990	341540	1475.2	801.91	912.48	108.84	0.000022096	1.17E-05	0.013913
300.95	4.95E+05	1375.7	0.00072689	231640	232000	1110.8	838.98	1190.1	402.78	-2.37E-08	0.00023055	0.059084	0.0067661	39.472	0.025334	329220	341770	1475.5	802.8	914.06	108.77	0.000022039	1.17E-05	0.013951
301.33	5.01E+05	1374.1	0.00072775	232100	232460	1112.3	839.51	1191.4	401.3	-2.04E-08	0.00022935	0.058982	0.0067233	39.93	0.025044	329460	342010	1475.8	803.69	915.65	108.7	0.000021981	1.17E-05	0.013988
301.71	5.07E+05	1372.5	0.00072862	232550	232920	1113.8	840.03	1192.6	399.83	-1.71E-08	0.00022815	0.05888	0.0066805	40.393	0.024757	329700	342240	1476.2	804.58	917.25	108.62	0.000021925	1.18E-05	0.014026
302.1	5.13E+05	1370.8	0.00072949	233000	233370	1115.3	840.55	1193.9	398.36	-1.38E-08	0.00022696	0.058778	0.0066377	40.86	0.024474	329930	342480	1476.5	805.47	918.86	108.55	0.000021869	1.18E-05	0.014064
302.48	5.18E+05	1369.2	0.00073037	233450	233830	1116.8	841.08	1195.2	396.88	-1.04E-08	0.00022578	0.058677	0.006595	41.331	0.024195	330170	342710	1476.8	806.36	920.47	108.47	0.000021814	1.18E-05	0.014102
302.86	5.24E+05	1367.5	0.00073126	233900	234290	1118.3	841.6	1196.5	395.41	-6.97E-09	0.0002246	0.058575	0.0065524	41.808	0.023919	330410	342950	1477.1	807.25	922.1	108.39	0.00002176	1.18E-05	0.01414
303.24	5.30E+05	1365.9	0.00073214	234360	234750	1119.8	842.13	1197.8	393.93	-3.53E-09	0.00022342	0.058473	0.0065097	42.288	0.023647	330640	343180	1477.4	808.15	923.73	108.32	0.000021706	1.18E-05	0.014178
303.63	5.36E+05	1364.2	0.00073303	234810	235200	1121.3	842.65	1199.1	392.46	-4.60E-11	0.00022225	0.058372	0.0064672	42.774	0.023379	330880	343420	1477.7	809.04	925.38	108.24	0.000021653	1.19E-05	0.014217
304.01	5.42E+05	1362.5	0.00073393	235270	235660	1122.8	843.18	1200.4	390.98	3.47E-09	0.00022109	0.05827	0.0064246	43.264	0.023114	331110	343650	1478	809.93	927.03	108.16	0.000021601	1.19E-05	0.014256
304.39	5.48E+05	1360.9	0.00073483	235720	236120	1124.3	843.71	1201.7	389.5	7.03E-09	0.00021993	0.058168	0.0063822	43.759	0.022852	331350	343880	1478.3	810.82	928.69	108.08	0.000021549	1.19E-05	0.014295
304.77	5.55E+05	1359.2	0.00073574	236180	236580	1125.8	844.23	1203.1	388.03	1.06E-08	0.00021877	0.058067	0.0063397	44.259	0.022594	331580	344110	1478.6	811.71	930.37	107.99	0.000021498	1.19E-05	0.014334
305.16	5.61E+05	1357.5	0.00073665	236630	237040	1127.3	844.76	1204.4	386.55	1.43E-08	0.00021762	0.057965	0.0062973	44.764	0.02234	331820	344350	1478.9	812.6	932.05	107.91	0.000021447	1.19E-05	0.014373
305.54	5.67E+05	1355.8	0.00073756	237090	237510	1128.8	845.29	1205.8	385.07	1.79E-08	0.00021648	0.057863	0.006255	45.273	0.022088	332050	344580	1479.2	813.5	933.75	107.83	0.000021398	1.19E-05	0.014413
305.92	5.73E+05	1354.1	0.00073848	237540	237970	1130.3	845.81	1207.1	383.59	2.17E-08	0.00021534	0.057761	0.0062127	45.788	0.02184	332290	344810	1479.5	814.39	935.45	107.74	0.000021349	1.20E-05	0.014453
306.3	5.80E+05	1352.4	0.00073941	238000	238430	1131.8	846.34	1208.5	382.11	2.54E-08	0.0002142	0.05766	0.0061704	46.308	0.021595	332520	345040	1479.8	815.28	937.17	107.65	0.0000213	1.20E-05	0.014493
306.69	5.86E+05	1350.7	0.00074034	238460	238890	1133.2	846.87	1209.9	380.62	2.92E-08	0.00021308	0.057558	0.0061282	46.832	0.021353	332760	345270	1480.1	816.17	938.9	107.56	0.000021252	1.20E-05	0.014533
307.07	5.93E+05	1349	0.00074127	238910	239350	1134.7	847.4	1211.3	379.14	3.31E-08	0.00021195	0.057456	0.0060861	47.362	0.021114	332990	345500	1480.4	817.06	940.63	107.48	0.000021205	1.20E-05	0.014574
307.45	5.99E+05	1347.3	0.00074222	239370	239820	1136.2	847.93	1212.7	377.66	3.70E-08	0.00021083	0.057355	0.006044	47.897	0.020878	333230	345730	1480.7	817.96	942.38	107.38	0.000021158	1.20E-05	0.014615
307.84	6.06E+05	1345.6	0.00074316	239830	240280	1137.7	848.46	1214.1	376.17	4.09E-08	0.00020972	0.057253	0.0060019	48.437	0.020645	333460	345960	1481	818.85	944.15	107.29	0.000021112	1.21E-05	0.014656
308.22	6.12E+05	1343.9	0.00074411	240290	240750	1139.2	848.98	1215.5	374.69	4.49E-08	0.00020861	0.057151	0.0059599	48.983	0.020415	333690	346190	1481.3	819.74	945.92	107.2	0.000021067	1.21E-05	0.014697
308.6	6.19E+05	1342.2	0.00074507	240750	241210	1140.7	849.51	1216.9	373.2	4.89E-08	0.0002075	0.05705	0.0059179	49.533	0.020188	333930	346420	1481.6	820.64	947.71	107.11	0.000021022	1.21E-05	0.014739
308.98	6.26E+05	1340.4	0.00074603	241210	241680	1142.2	850.04	1218.4	371.72	5.30E-08	0.0002064	0.056948	0.005876	50.089	0.019964	334160	346650	1481.9	821.53	949.5	107.01	0.000020978	1.21E-05	0.01478
309.37	6.33E+05	1338.7	0.000747	241670	242140	1143.7	850.57	1219.8	370.23	5.71E-08	0.0002053	0.056846	0.0058342	50.651	0.019743	334390	346880	1482.2	822.42	951.32	106.92	0.000020935	1.21E-05	0.014822
309.75	6.39E+05	1336.9	0.00074797	242130	242610	1145.2	851.11	1221.3	368.74	6.13E-08	0.00020421	0.056745	0.0057923	51.218	0.019524	334620	347110	1482.5	823.32	953.14	106.82	0.000020892	1.22E-05	0.014865
310.13	6.46E+05	1335.2	0.00074895	242590	243080	1146.7	851.64	1222.7	367.25	6.55E-08	0.00020313	0.056643	0.0057506	51.791	0.019309	334860	347330	1482.8	824.21	954.98	106.72	0.00002085	1.22E-05	0.014907
310.51	6.53E+05	1333.4	0.00074994	243050	243540	1148.2	852.17	1224.2	365.76	6.97E-08	0.00020204	0.056541	0.0057089	52.369	0.019095	335090	347560	1483.1	825.11	956.83	106.62	0.000020808	1.22E-05	0.01495
310.9	6.60E+05	1331.7	0.00075093	243520	244010	1149.6	852.7	1225.7	364.27	7.40E-08	0.00020097	0.05644	0.0056672	52.953	0.018885	335320	347790	1483.4	826	958.69	106.52	0.000020767	1.22E-05	0.014993
311.28	6.67E+05	1329.9	0.00075192	243980	244480	1151.1	853.23	1227.2	362.78	7.84E-08	0.00019989	0.056338	0.0056256	53.542	0.018677	335550	348020	1483.7	826.9	960.57	106.42	0.000020727	1.22E-05	0.015036
311.66	6.74E+05	1328.2	0.00075292	244440	244950	1152.6	853.77	1228.8	361.28	8.28E-08	0.00019882	0.056237	0.0055841	54.137	0.018472	335780	348240	1484	827.79	962.46	106.31	0.000020687	1.22E-05	0.01508
312.04	6.82E+05	1326.4	0.00075393	244910	245420	1154.1	854.3	1230.3	359.79	8.73E-08	0.00019776	0.056135	0.0055426	54.738	0.018269	336010	348470	1484.3	828.69	964.37	106.21	0.000020648	1.23E-05	0.015124
312.43	6.89E+05	1324.6	0.00075494	245370	245890	1155.6	854.83	1231.8	358.3	9.18E-08	0.0001967	0.056033	0.0055011	55.345	0.018068	336250	348690	1484.6	829.58	966.29	106.1	0.000020609	1.23E-05	0.015168
312.81	6.96E+05	1322.8	0.00075596	245830	246360	1157.1	855.37	1233.4	356.8	9.64E-08	0.00019564	0.055932	0.0054597	55.958	0.01787	336480	348920	1484.9	830.48	968.23	105.99	0.000020571	1.23E-05	0.015212
313.19	7.04E+05	1321	0.00075699	246300	246830	1158.6	855.9	1235	355.3	1.01E-07	0.00019459	0.05583	0.0054184	56.577	0.017675	336710	349140	1485.2	831.38	970.18	105.89	0.000020534	1.23E-05	0.015257
313.58	7.11E+05	1319.2	0.00075802	246770	247300	1160.1	856.44	1236.5	353.8	1.06E-07	0.00019355	0.055729	0.0053771	57.202	0.017482	336940	349360	1485.5	832.27	972.15	105.78	0.000020497	1.23E-05	0.015302
313.96	7.18E+05	1317.4	0.00075906	247230	247780	1161.6	856.97	1238.1	352.31	1.11E-07	0.0001925	0.055627	0.0053359	57.834	0.017291	337170	349590	1485.8	833.17	974.13	105.66	0.000020461	1.24E-05	0.015347
314.34	7.26E+05	1315.6	0.00076011	247700	248250	1163	857.51	1239.8	350.81	1.15E-07	0.00019146	0.055526	0.0052947	58.471	0.017102	337400	349810	1486.1	834.07	976.13	105.55	0.000020426	1.24E-05	0.015393
314.72	7.34E+05	1313.8	0.00076116	248170	248720	1164.5	858.05	1241.4	349.31	1.20E-07	0.00019043	0.055424	0.0052536	59.115	0.016916	337620	350030	1486.4	834.97	978.15	105.44	0.000020391	1.24E-05	0.015439
315.11	7.41E+05	1312	0.00076221	248630	249200	1166	858.58	1243	347.8	1.25E-07	0.0001894	0.055323	0.0052125	59.765	0.016732	337850	350260	1486.7	835.87	980.18	105.32	0.000020356	1.24E-05	0.015485
315.49	7.49E+05	1310.1	0.00076328	249100	249670	1167.5	859.12	1244.7	346.3	1.30E-07	0.00018837	0.055222	0.0051715	60.421	0.01655	338080	350480	1487	836.77	982.23	105.21	0.000020323	1.25E-05	0.015532
315.87	7.57E+05	1308.3	0.00076435	249570	250150	1169	859.66	1246.3	344.8	1.35E-07	0.00018735	0.05512	0.0051306	61.084	0.016371	338310	350700	1487.3	837.67	984.3	105.09	0.000020289	1.25E-05	0.015579
316.25	7.65E+05	1306.5	0.00076543	250040	250620	1170.5	860.2	1248	343.29	1.40E-07	0.00018633	0.055019	0.0050897	61.754	0.016193	338540	350920	1487.6	838.57	986.38	104.97	0.000020257	1.25E-05	0.015626
316.64	7.72E+05	1304.6	0.00076651	250510	251100	1172	860.74	1249.7	341.78	1.46E-07	0.00018532	0.054918	0.0050488	62.43	0.016018	338770	351140	1487.9	839.47	988.49	104.85	0.000020225	1.25E-05	0.015674
317.02	7.80E+05	1302.8	0.0007676	250980	251580	1173.5	861.28	1251.4	340.28	1.51E-07	0.00018431	0.054816	0.0050081	63.113	0.015845	338990	351360	1488.2	840.37	990.61	104.73	0.000020193	1.25E-05	0.015722
317.4	7.88E+05	1300.9	0.0007687	251450	252050	1174.9	861.82	1253.2	338.77	1.56E-07	0.0001833	0.054715	0.0049673	63.802	0.015673	339220	351580	1488.5	841.28	992.76	104.61	0.000020163	1.26E-05	0.01577
317.78	7.96E+05	1299	0.00076981	251920	252530	1176.4	862.36	1254.9	337.26	1.62E-07	0.0001823	0.054614	0.0049267	64.499	0.015504	339450	351800	1488.8	842.18	994.92	104.48	0.000020132	1.26E-05	0.015819
318.17	8.05E+05	1297.1	0.00077092	252390	253010	1177.9	862.9	1256.7	335.75	1.67E-07	0.0001813	0.054513	0.0048861	65.202	0.015337	339670	352010	1489.1	843.08	997.1	104.36	0.000020103	1.26E-05	0.015868
318.55	8.13E+05	1295.3	0.00077204	252860	253490	1179.4	863.45	1258.5	334.23	1.73E-07	0.0001803	0.054411	0.0048455	65.912	0.015172	339900	352230	1489.4	843.99	999.31	104.23	0.000020074	1.26E-05	0.015917
318.93	8.21E+05	1293.4	0.00077317	253340	253970	1180.9	863.99	1260.2	332.72	1.78E-07	0.00017931	0.05431	0.0048051	66.63	0.015008	340120	352450	1489.7	844.89	1001.5	104.1	0.000020045	1.26E-05	0.015967
319.32	8.29E+05	1291.5	0.00077431	253810	254450	1182.4	864.53	1262.1	331.2	1.84E-07	0.00017833	0.054209	0.0047647	67.355	0.014847	340350	352660	1489.9	845.8	1003.8	103.97	0.000020018	1.27E-05	0.016017
319.7	8.38E+05	1289.6	0.00077545	254280	254930	1183.9	865.08	1263.9	329.69	1.90E-07	0.00017734	0.054108	0.0047243	68.087	0.014687	340570	352880	1490.2	846.7	1006	103.84	0.00001999	1.27E-05	0.016068
320.08	8.46E+05	1287.7	0.0007766	254760	255420	1185.3	865.63	1265.7	328.17	1.96E-07	0.00017636	0.054007	0.004684	68.826	0.014529	340800	353100	1490.5	847.61	1008.3	103.71	0.000019964	1.27E-05	0.016119
320.46	8.55E+05	1285.7	0.00077776	255230	255900	1186.8	866.17	1267.6	326.65	2.01E-07	0.00017539	0.053906	0.0046438	69.572	0.014373	341020	353310	1490.8	848.52	1010.6	103.57	0.000019938	1.27E-05	0.01617
320.85	8.63E+05	1283.8	0.00077893	255710	256380	1188.3	866.72	1269.5	325.13	2.07E-07	0.00017441	0.053805	0.0046036	70.327	0.014219	341250	353520	1491.1	849.43	1013	103.44	0.000019912	1.28E-05	0.016222
321.23	8.72E+05	1281.9	0.0007801	256180	256870	1189.8	867.27	1271.4	323.61	2.14E-07	0.00017344	0.053704	0.0045635	71.088	0.014067	341470	353740	1491.4	850.34	1015.3	103.3	0.000019887	1.28E-05	0.016274
321.61	8.81E+05	1279.9	0.00078128	256660	257350	1191.3	867.82	1273.3	322.09	2.20E-07	0.00017248	0.053603	0.0045234	71.858	0.013916	341690	353950	1491.7	851.25	1017.7	103.16	0.000019863	1.28E-05	0.016327
321.99	8.90E+05	1278	0.00078247	257140	257830	1192.8	868.36	1275.3	320.56	2.26E-07	0.00017152	0.053502	0.0044835	72.635	0.013767	341920	354160	1491.9	852.16	1020.1	103.02	0.000019839	1.28E-05	0.01638
322.38	8.98E+05	1276	0.00078367	257620	258320	1194.3	868.92	1277.2	319.04	2.32E-07	0.00017056	0.053401	0.0044436	73.42	0.01362	342140	354370	1492.2	853.07	1022.6	102.88	0.000019816	1.28E-05	0.016433
322.76	9.07E+05	1274.1	0.00078488	258090	258810	1195.7	869.47	1279.2	317.51	2.39E-07	0.0001696	0.053301	0.0044037	74.214	0.013475	342360	354590	1492.5	853.98	1025	102.74	0.000019793	1.29E-05	0.016487
323.14	9.16E+05	1272.1	0.0007861	258570	259290	1197.2	870.02	1281.2	315.98	2.45E-07	0.00016865	0.0532	0.0043639	75.015	0.013331	342580	354800	1492.8	854.9	1027.5	102.59	0.000019771	1.29E-05	0.016542
323.52	9.25E+05	1270.1	0.00078732	259050	259780	1198.7	870.57	1283.2	314.45	2.52E-07	0.0001677	0.053099	0.0043242	75.824	0.013188	342800	355010	1493.1	855.81	1030	102.45	0.00001975	1.29E-05	0.016596
323.91	9.34E+05	1268.1	0.00078856	259530	260270	1200.2	871.12	1285.3	312.92	2.59E-07	0.00016676	0.052998	0.0042846	76.642	0.013048	343020	355210	1493.3	856.73	1032.6	102.3	0.000019729	1.29E-05	0.016652
324.29	9.44E+05	1266.1	0.0007898	260010	260760	1201.7	871.68	1287.4	311.39	2.66E-07	0.00016582	0.052898	0.004245	77.468	0.012909	343240	355420	1493.6	857.64	1035.2	102.15	0.000019709	1.30E-05	0.016708
324.67	9.53E+05	1264.1	0.00079105	260500	261250	1203.2	872.23	1289.5	309.85	2.73E-07	0.00016488	0.052797	0.0042055	78.303	0.012771	343460	355630	1493.9	858.56	1037.8	102	0.000019689	1.30E-05	0.016764
325.06	9.62E+05	1262.1	0.00079232	260980	261740	1204.7	872.79	1291.6	308.32	2.80E-07	0.00016394	0.052697	0.004166	79.146	0.012635	343680	355840	1494.2	859.48	1040.4	101.85	0.00001967	1.30E-05	0.016821
325.44	9.72E+05	1260.1	0.00079359	261460	262230	1206.2	873.35	1293.7	306.78	2.87E-07	0.00016301	0.052596	0.0041266	79.998	0.0125	343900	356040	1494.4	860.4	1043.1	101.69	0.000019652	1.30E-05	0.016878
325.82	9.81E+05	1258.1	0.00079487	261940	262720	1207.6	873.91	1295.9	305.24	2.94E-07	0.00016208	0.052496	0.0040873	80.858	0.012367	344120	356250	1494.7	861.32	1045.8	101.54	0.000019634	1.31E-05	0.016936
326.2	9.91E+05	1256	0.00079616	262430	263220	1209.1	874.47	1298.1	303.7	3.01E-07	0.00016116	0.052395	0.0040481	81.728	0.012236	344330	356450	1495	862.24	1048.5	101.38	0.000019616	1.31E-05	0.016994
326.59	1.00E+06	1254	0.00079746	262910	263710	1210.6	875.03	1300.3	302.16	3.09E-07	0.00016023	0.052295	0.0040089	82.607	0.012106	344550	356660	1495.2	863.17	1051.2	101.22	0.0000196	1.31E-05	0.017053
326.97	1.01E+06	1251.9	0.00079877	263400	264200	1212.1	875.59	1302.6	300.61	3.16E-07	0.00015932	0.052195	0.0039698	83.495	0.011977	344770	356860	1495.5	864.09	1054	101.06	0.000019584	1.31E-05	0.017112
327.35	1.02E+06	1249.9	0.00080009	263880	264700	1213.6	876.15	1304.8	299.07	3.24E-07	0.0001584	0.052095	0.0039308	84.392	0.011849	344980	357060	1495.8	865.02	1056.9	100.9	0.000019568	1.32E-05	0.017172
327.73	1.03E+06	1247.8	0.00080142	264370	265190	1215.1	876.71	1307.1	297.52	3.32E-07	0.00015749	0.051995	0.0038919	85.298	0.011724	345200	357270	1496	865.94	1059.7	100.74	0.000019553	1.32E-05	0.017233
328.12	1.04E+06	1245.7	0.00080276	264860	265690	1216.6	877.28	1309.5	295.97	3.40E-07	0.00015658	0.051894	0.003853	86.215	0.011599	345410	357470	1496.3	866.87	1062.6	100.57	0.000019539	1.32E-05	0.017294
328.5	1.05E+06	1243.6	0.00080411	265340	266190	1218.1	877.85	1311.8	294.42	3.48E-07	0.00015567	0.051794	0.0038142	87.14	0.011476	345630	357670	1496.5	867.8	1065.6	100.41	0.000019525	1.32E-05	0.017355
328.88	1.06E+06	1241.5	0.00080548	265830	266680	1219.6	878.41	1314.2	292.87	3.56E-07	0.00015476	0.051694	0.0037754	88.076	0.011354	345840	357870	1496.8	868.73	1068.6	100.24	0.000019512	1.33E-05	0.017417
329.26	1.07E+06	1239.4	0.00080685	266320	267180	1221	878.98	1316.6	291.31	3.65E-07	0.00015386	0.051595	0.0037368	89.022	0.011233	346050	358070	1497.1	869.66	1071.6	100.07	0.000019499	1.33E-05	0.01748
329.65	1.08E+06	1237.3	0.00080823	266810	267680	1222.5	879.55	1319.1	289.76	3.73E-07	0.00015296	0.051495	0.0036982	89.977	0.011114	346270	358260	1497.3	870.6	1074.6	99.899	0.000019487	1.33E-05	0.017544
330.03	1.09E+06	1235.1	0.00080963	267300	268180	1224	880.12	1321.6	288.2	3.82E-07	0.00015207	0.051395	0.0036597	90.943	0.010996	346480	358460	1497.6	871.53	1077.7	99.726	0.000019476	1.33E-05	0.017608
330.41	1.10E+06	1233	0.00081104	267790	268680	1225.5	880.69	1324.1	286.64	3.90E-07	0.00015117	0.051295	0.0036213	91.919	0.010879	346690	358660	1497.8	872.47	1080.9	99.552	0.000019465	1.34E-05	0.017673
330.8	1.11E+06	1230.8	0.00081246	268280	269190	1227	881.27	1326.6	285.08	3.99E-07	0.00015028	0.051195	0.0035829	92.906	0.010764	346900	358850	1498.1	873.41	1084.1	99.375	0.000019455	1.34E-05	0.017738
331.18	1.12E+06	1228.7	0.00081389	268780	269690	1228.5	881.84	1329.2	283.51	4.08E-07	0.0001494	0.051096	0.0035447	93.903	0.010649	347110	359050	1498.3	874.35	1087.3	99.197	0.000019446	1.34E-05	0.017804
331.56	1.13E+06	1226.5	0.00081533	269270	270190	1230	882.42	1331.8	281.95	4.18E-07	0.00014851	0.050996	0.0035065	94.912	0.010536	347320	359240	1498.6	875.29	1090.6	99.017	0.000019437	1.34E-05	0.017871
331.94	1.14E+06	1224.3	0.00081679	269760	270700	1231.5	882.99	1334.5	280.38	4.27E-07	0.00014763	0.050897	0.0034684	95.931	0.010424	347530	359430	1498.8	876.23	1093.9	98.836	0.000019428	1.35E-05	0.017938
332.33	1.15E+06	1222.1	0.00081825	270260	271200	1233	883.57	1337.2	278.81	4.36E-07	0.00014675	0.050798	0.0034303	96.961	0.010313	347740	359630	1499.1	877.18	1097.3	98.652	0.000019421	1.35E-05	0.018006
332.71	1.16E+06	1219.9	0.00081973	270750	271710	1234.5	884.15	1339.9	277.24	4.46E-07	0.00014587	0.050698	0.0033924	98.003	0.010204	347950	359820	1499.3	878.12	1100.7	98.467	0.000019414	1.35E-05	0.018075
333.09	1.17E+06	1217.7	0.00082123	271250	272210	1236	884.73	1342.7	275.66	4.56E-07	0.000145	0.050599	0.0033545	99.056	0.010095	348150	360010	1499.5	879.07	1104.2	98.28	0.000019407	1.36E-05	0.018144
333.47	1.19E+06	1215.5	0.00082274	271750	272720	1237.5	885.32	1345.5	274.08	4.66E-07	0.00014413	0.0505	0.0033167	100.12	0.0099879	348360	360200	1499.8	880.02	1107.7	98.092	0.000019401	1.36E-05	0.018215
333.86	1.20E+06	1213.2	0.00082426	272240	273230	1239	885.9	1348.3	272.51	4.76E-07	0.00014326	0.050401	0.003279	101.2	0.0098817	348560	360380	1500	880.97	1111.3	97.901	0.000019396	1.36E-05	0.018286
334.24	1.21E+06	1211	0.00082579	272740	273740	1240.5	886.49	1351.2	270.93	4.86E-07	0.00014239	0.050302	0.0032414	102.29	0.0097765	348770	360570	1500.3	881.93	1114.9	97.709	0.000019391	1.36E-05	0.018358
334.62	1.22E+06	1208.7	0.00082734	273240	274250	1242	887.08	1354.1	269.34	0.000000497	0.00014152	0.050203	0.0032039	103.39	0.0096724	348970	360760	1500.5	882.88	1118.6	97.515	0.000019387	1.37E-05	0.01843
335	1.23E+06	1206.4	0.0008289	273740	274760	1243.5	887.67	1357.1	267.76	5.08E-07	0.00014066	0.050104	0.0031664	104.5	0.0095694	349180	360940	1500.7	883.84	1122.4	97.319	0.000019384	1.37E-05	0.018504
335.39	1.24E+06	1204.1	0.00083047	274240	275270	1245	888.26	1360.1	266.17	5.19E-07	0.0001398	0.050005	0.003129	105.63	0.0094674	349380	361130	1500.9	884.8	1126.2	97.121	0.000019381	1.37E-05	0.018578
335.77	1.25E+06	1201.8	0.00083207	274740	275780	1246.5	888.85	1363.2	264.58	5.30E-07	0.00013894	0.049907	0.0030918	106.76	0.0093664	349580	361310	1501.2	885.76	1130.1	96.921	0.000019379	1.38E-05	0.018653
336.15	1.26E+06	1199.5	0.00083367	275240	276300	1248	889.45	1366.3	262.99	5.41E-07	0.00013809	0.049808	0.0030546	107.92	0.0092665	349780	361490	1501.4	886.73	1134.1	96.719	0.000019378	1.38E-05	0.018729
336.54	1.28E+06	1197.2	0.00083529	275750	276810	1249.5	890.04	1369.5	261.39	5.53E-07	0.00013723	0.04971	0.0030175	109.08	0.0091675	349980	361670	1501.6	887.69	1138.1	96.516	0.000019377	1.38E-05	0.018806
336.92	1.29E+06	1194.8	0.00083693	276250	277330	1251	890.64	1372.7	259.8	5.65E-07	0.00013638	0.049612	0.0029804	110.26	0.0090696	350180	361850	1501.8	888.66	1142.2	96.31	0.000019377	1.39E-05	0.018884
337.3	1.30E+06	1192.5	0.00083858	276760	277850	1252.5	891.24	1376	258.2	5.77E-07	0.00013553	0.049513	0.0029435	111.45	0.0089726	350380	362030	1502.1	889.63	1146.3	96.103	0.000019377	1.39E-05	0.018962
337.68	1.31E+06	1190.1	0.00084025	277260	278360	1254	891.84	1379.3	256.6	5.89E-07	0.00013469	0.049415	0.0029067	112.66	0.0088765	350570	362210	1502.3	890.6	1150.6	95.893	0.000019378	1.39E-05	0.019042
338.07	1.32E+06	1187.7	0.00084193	277770	278880	1255.5	892.45	1382.7	254.99	6.01E-07	0.00013384	0.049317	0.00287	113.88	0.0087815	350770	362380	1502.5	891.58	1154.9	95.682	0.00001938	1.40E-05	0.019122
338.45	1.33E+06	1185.3	0.00084363	278280	279400	1257	893.05	1386.2	253.38	6.14E-07	0.000133	0.049219	0.0028333	115.11	0.0086873	350970	362560	1502.7	892.56	1159.2	95.469	0.000019382	1.40E-05	0.019204
338.83	1.35E+06	1182.9	0.00084535	278780	279920	1258.5	893.66	1389.7	251.77	6.27E-07	0.00013216	0.049122	0.0027967	116.36	0.0085941	351160	362730	1502.9	893.54	1163.7	95.254	0.000019385	1.40E-05	0.019286
339.21	1.36E+06	1180.5	0.00084709	279290	280440	1260	894.27	1393.2	250.16	6.40E-07	0.00013132	0.049024	0.0027603	117.62	0.0085018	351350	362900	1503.1	894.52	1168.3	95.036	0.000019389	1.41E-05	0.01937
339.6	1.37E+06	1178.1	0.00084884	279800	280970	1261.5	894.88	1396.9	248.55	6.54E-07	0.00013048	0.048926	0.0027239	118.9	0.0084104	351550	363080	1503.3	895.51	1172.9	94.817	0.000019393	1.41E-05	0.019454
339.98	1.38E+06	1175.6	0.00085061	280310	281490	1263	895.5	1400.6	246.93	6.67E-07	0.00012965	0.048829	0.0026877	120.2	0.0083198	351740	363240	1503.5	896.49	1177.6	94.596	0.000019398	1.41E-05	0.01954
340.36	1.40E+06	1173.2	0.0008524	280830	282020	1264.5	896.12	1404.3	245.31	6.81E-07	0.00012881	0.048732	0.0026515	121.5	0.0082301	351930	363410	1503.7	897.48	1182.4	94.372	0.000019404	1.42E-05	0.019626
340.74	1.41E+06	1170.7	0.00085421	281340	282540	1266.1	896.74	1408.2	243.68	6.96E-07	0.00012798	0.048634	0.0026154	122.83	0.0081413	352120	363580	1503.9	898.48	1187.4	94.147	0.00001941	1.42E-05	0.019714
341.13	1.42E+06	1168.2	0.00085604	281850	283070	1267.6	897.36	1412.1	242.06	7.10E-07	0.00012715	0.048537	0.0025794	124.17	0.0080533	352310	363750	1504.1	899.48	1192.4	93.919	0.000019417	1.42E-05	0.019803
341.51	1.43E+06	1165.7	0.00085789	282370	283600	1269.1	897.98	1416	240.43	7.25E-07	0.00012632	0.04844	0.0025436	125.53	0.0079662	352500	363910	1504.3	900.47	1197.5	93.69	0.000019425	1.43E-05	0.019893
341.89	1.45E+06	1163.1	0.00085976	282880	284130	1270.6	898.61	1420.1	238.8	7.40E-07	0.0001255	0.048344	0.0025078	126.91	0.0078799	352680	364070	1504.4	901.48	1202.7	93.458	0.000019434	1.43E-05	0.019984
342.28	1.46E+06	1160.6	0.00086164	283400	284660	1272.1	899.24	1424.2	237.16	7.56E-07	0.00012467	0.048247	0.0024721	128.3	0.0077944	352870	364240	1504.6	902.48	1208	93.224	0.000019443	1.43E-05	0.020077
342.66	1.47E+06	1158	0.00086355	283920	285190	1273.6	899.87	1428.4	235.52	7.72E-07	0.00012385	0.048151	0.0024365	129.71	0.0077097	353050	364400	1504.8	903.49	1213.5	92.988	0.000019452	1.44E-05	0.020171
343.04	1.48E+06	1155.4	0.00086548	284440	285720	1275.2	900.51	1432.7	233.88	7.88E-07	0.00012302	0.048054	0.0024011	131.13	0.0076257	353240	364550	1505	904.5	1219	92.75	0.000019463	1.44E-05	0.020266
343.42	1.50E+06	1152.8	0.00086744	284960	286260	1276.7	901.14	1437.1	232.23	8.05E-07	0.0001222	0.047958	0.0023657	132.58	0.0075426	353420	364710	1505.1	905.52	1224.7	92.51	0.000019474	1.44E-05	0.020362
343.81	1.51E+06	1150.2	0.00086941	285480	286790	1278.2	901.78	1441.6	230.58	8.22E-07	0.00012138	0.047862	0.0023305	134.04	0.0074602	353600	364870	1505.3	906.54	1230.5	92.267	0.000019486	1.45E-05	0.020459
344.19	1.52E+06	1147.6	0.00087141	286000	287330	1279.7	902.43	1446.2	228.93	8.39E-07	0.00012057	0.047766	0.0022953	135.53	0.0073786	353780	365020	1505.5	907.56	1236.4	92.022	0.000019498	1.45E-05	0.020558
344.57	1.54E+06	1144.9	0.00087343	286520	287870	1281.3	903.07	1450.9	227.28	8.57E-07	0.00011975	0.047671	0.0022603	137.03	0.0072977	353960	365170	1505.6	908.59	1242.5	91.775	0.000019511	1.46E-05	0.020659
344.95	1.55E+06	1142.2	0.00087548	287050	288410	1282.8	903.72	1455.6	225.62	8.75E-07	0.00011893	0.047575	0.0022254	138.55	0.0072175	354130	365320	1505.8	909.62	1248.7	91.526	0.000019525	1.46E-05	0.020761
345.34	1.56E+06	1139.5	0.00087755	287570	288950	1284.3	904.38	1460.5	223.96	8.93E-07	0.00011812	0.04748	0.0021905	140.09	0.0071381	354310	365470	1505.9	910.65	1255	91.275	0.00001954	1.46E-05	0.020864
345.72	1.58E+06	1136.8	0.00087964	288100	289490	1285.9	905.03	1465.5	222.29	9.12E-07	0.00011731	0.047385	0.0021558	141.66	0.0070594	354480	365620	1506.1	911.69	1261.5	91.021	0.000019555	1.47E-05	0.020969
346.1	1.59E+06	1134.1	0.00088176	288630	290030	1287.4	905.69	1470.6	220.62	9.32E-07	0.0001165	0.04729	0.0021213	143.24	0.0069813	354660	365770	1506.2	912.73	1268.2	90.765	0.000019571	1.47E-05	0.021075
346.48	1.60E+06	1131.3	0.00088391	289160	290580	1288.9	906.35	1475.8	218.94	9.52E-07	0.00011569	0.047196	0.0020868	144.84	0.006904	354830	365910	1506.4	913.78	1275	90.506	0.000019588	1.48E-05	0.021183
346.87	1.62E+06	1128.6	0.00088608	289690	291120	1290.5	907.02	1481.2	217.27	0.000000972	0.00011488	0.047101	0.0020524	146.47	0.0068273	355000	366050	1506.5	914.83	1282	90.246	0.000019605	1.48E-05	0.021292
347.25	1.63E+06	1125.8	0.00088828	290220	291670	1292	907.69	1486.6	215.59	9.93E-07	0.00011407	0.047007	0.0020182	148.12	0.0067513	355170	366190	1506.6	915.88	1289.2	89.983	0.000019623	1.49E-05	0.021403
347.63	1.65E+06	1122.9	0.00089051	290750	292220	1293.6	908.37	1492.2	213.9	1.01E-06	0.00011326	0.046913	0.0019841	149.79	0.006676	355340	366330	1506.7	916.94	1296.5	89.717	0.000019642	1.49E-05	0.021516
348.02	1.66E+06	1120.1	0.00089277	291290	292770	1295.1	909.04	1498	212.21	1.04E-06	0.00011245	0.046819	0.0019501	151.49	0.0066013	355500	366460	1506.9	918	1304.1	89.449	0.000019662	1.50E-05	0.021631
348.4	1.68E+06	1117.2	0.00089506	291820	293320	1296.7	909.72	1503.9	210.52	1.06E-06	0.00011165	0.046726	0.0019162	153.2	0.0065272	355660	366600	1507	919.07	1311.8	89.179	0.000019682	1.50E-05	0.021747
348.78	1.69E+06	1114.4	0.00089738	292360	293870	1298.2	910.41	1509.9	208.82	1.08E-06	0.00011084	0.046633	0.0018824	154.95	0.0064538	355830	366730	1507.1	920.14	1319.8	88.907	0.000019703	1.50E-05	0.021865
349.16	1.70E+06	1111.4	0.00089974	292900	294430	1299.8	911.1	1516.1	207.11	1.11E-06	0.00011004	0.04654	0.0018488	156.72	0.006381	355990	366860	1507.2	921.22	1328	88.632	0.000019725	1.51E-05	0.021986
349.55	1.72E+06	1108.5	0.00090212	293440	294990	1301.3	911.8	1522.5	205.41	1.13E-06	0.00010923	0.046448	0.0018153	158.51	0.0063088	356150	366990	1507.3	922.3	1336.4	88.354	0.000019747	1.51E-05	0.022108
349.93	1.73E+06	1105.5	0.00090454	293980	295540	1302.9	912.49	1529	203.69	1.15E-06	0.00010843	0.046355	0.0017819	160.33	0.0062372	356300	367110	1507.4	923.39	1345	88.074	0.00001977	1.52E-05	0.022232
350.31	1.75E+06	1102.5	0.00090699	294520	296100	1304.4	913.2	1535.7	201.98	1.18E-06	0.00010762	0.046263	0.0017486	162.18	0.0061661	356460	367240	1507.5	924.48	1353.9	87.792	0.000019794	1.52E-05	0.022358
350.69	1.76E+06	1099.5	0.00090948	295060	296670	1306	913.91	1542.6	200.26	1.21E-06	0.00010682	0.046172	0.0017155	164.05	0.0060957	356610	367360	1507.6	925.58	1363	87.507	0.000019819	1.53E-05	0.022486
351.08	1.78E+06	1096.5	0.000912	295610	297230	1307.6	914.62	1549.7	198.53	1.23E-06	0.00010602	0.046081	0.0016825	165.95	0.0060258	356770	367480	1507.7	926.68	1372.4	87.219	0.000019844	1.53E-05	0.022616
351.46	1.79E+06	1093.4	0.00091456	296160	297800	1309.1	915.34	1557	196.8	1.26E-06	0.00010522	0.04599	0.0016497	167.88	0.0059565	356920	367590	1507.7	927.79	1382.1	86.929	0.00001987	1.54E-05	0.022749
351.84	1.81E+06	1090.3	0.00091716	296700	298360	1310.7	916.06	1564.5	195.06	1.29E-06	0.00010441	0.0459	0.001617	169.84	0.0058878	357060	367710	1507.8	928.91	1392.1	86.637	0.000019897	1.55E-05	0.022884
352.22	1.82E+06	1087.2	0.0009198	297250	298930	1312.3	916.79	1572.2	193.32	1.32E-06	0.00010361	0.04581	0.0015844	171.84	0.0058195	357210	367820	1507.9	930.03	1402.4	86.342	0.000019925	1.55E-05	0.023021
352.61	1.84E+06	1084	0.00092248	297810	299500	1313.9	917.53	1580.2	191.57	1.35E-06	0.00010281	0.04572	0.0015519	173.86	0.0057518	357350	367930	1507.9	931.16	1413.1	86.044	0.000019953	1.56E-05	0.023161
352.99	1.85E+06	1080.8	0.0009252	298360	300080	1315.4	918.27	1588.4	189.82	1.38E-06	0.00010201	0.045631	0.0015196	175.91	0.0056847	357490	368030	1508	932.29	1424.1	85.743	0.000019982	1.56E-05	0.023303
353.37	1.87E+06	1077.6	0.00092797	298920	300650	1317	919.02	1596.9	188.06	1.41E-06	0.0001012	0.045543	0.0014875	178	0.005618	357630	368140	1508	933.43	1435.4	85.44	0.000020011	1.57E-05	0.023448
353.76	1.88E+06	1074.4	0.00093078	299470	301230	1318.6	919.77	1605.7	186.3	1.45E-06	0.0001004	0.045455	0.0014555	180.12	0.0055518	357770	368240	1508	934.58	1447.2	85.135	0.000020042	1.57E-05	0.023596
354.14	1.90E+06	1071.1	0.00093364	300030	301810	1320.2	920.53	1614.7	184.53	1.48E-06	9.96E-05	0.045367	0.0014236	182.28	0.0054862	357910	368330	1508.1	935.73	1459.3	84.827	0.000020073	1.58E-05	0.023746
354.52	1.92E+06	1067.8	0.00093654	300590	302390	1321.8	921.29	1624.1	182.75	1.51E-06	9.88E-05	0.04528	0.0013919	184.47	0.005421	358040	368430	1508.1	936.89	1471.8	84.516	0.000020104	1.59E-05	0.023899
354.9	1.93E+06	1064.4	0.0009395	301160	302970	1323.4	922.07	1633.8	180.97	1.55E-06	9.80E-05	0.045194	0.0013603	186.7	0.0053563	358170	368520	1508.1	938.06	1484.9	84.202	0.000020137	1.59E-05	0.024055
355.29	1.95E+06	1061	0.00094251	301720	303560	1325	922.85	1643.8	179.18	1.59E-06	9.72E-05	0.045108	0.0013289	188.96	0.005292	358300	368610	1508.1	939.23	1498.3	83.886	0.00002017	1.60E-05	0.024214
355.67	1.96E+06	1057.6	0.00094557	302290	304150	1326.6	923.64	1654.2	177.38	1.63E-06	9.64E-05	0.045023	0.0012976	191.27	0.0052282	358420	368690	1508.1	940.42	1512.3	83.566	0.000020203	1.60E-05	0.024376
356.05	1.98E+06	1054.1	0.00094868	302860	304740	1328.3	924.43	1665	175.58	1.67E-06	9.56E-05	0.044939	0.0012665	193.62	0.0051649	358540	368770	1508.1	941.61	1526.8	83.244	0.000020238	1.61E-05	0.024542
356.43	2.00E+06	1050.6	0.00095185	303430	305330	1329.9	925.24	1676.1	173.77	1.71E-06	9.48E-05	0.044856	0.0012356	196	0.005102	358660	368850	1508.1	942.8	1541.9	82.92	0.000020273	1.62E-05	0.024711
356.82	2.01E+06	1047	0.00095508	304000	305920	1331.5	926.05	1687.8	171.95	1.75E-06	9.40E-05	0.044773	0.0012048	198.43	0.0050395	358780	368930	1508.1	944.01	1557.5	82.592	0.000020308	1.63E-05	0.024883
357.2	2.03E+06	1043.4	0.00095838	304580	306520	1333.1	926.87	1699.8	170.13	1.79E-06	9.31E-05	0.044692	0.0011742	200.91	0.0049774	358890	369000	1508	945.23	1573.8	82.262	0.000020344	1.63E-05	0.025059
357.58	2.05E+06	1039.8	0.00096174	305160	307120	1334.8	927.7	1712.4	168.3	0.00000184	9.23E-05	0.044611	0.0011438	203.43	0.0049157	359000	369060	1508	946.45	1590.8	81.929	0.000020381	1.64E-05	0.025239
357.96	2.06E+06	1036.1	0.00096516	305740	307730	1336.4	928.54	1725.5	166.46	1.89E-06	9.15E-05	0.044532	0.0011135	206	0.0048544	359110	369130	1507.9	947.69	1608.4	81.593	0.000020418	1.65E-05	0.025423
358.35	2.08E+06	1032.4	0.00096865	306320	308330	1338.1	929.39	1739.1	164.61	1.94E-06	9.07E-05	0.044453	0.0010834	208.61	0.0047935	359210	369190	1507.9	948.93	1626.9	81.254	0.000020456	1.65E-05	0.02561
358.73	2.10E+06	1028.6	0.00097222	306900	308940	1339.7	930.25	1753.3	162.75	1.99E-06	8.99E-05	0.044376	0.0010535	211.28	0.004733	359310	369240	1507.8	950.18	1646.1	80.912	0.000020494	1.66E-05	0.025802
359.11	2.12E+06	1024.7	0.00097586	307490	309560	1341.4	931.12	1768.2	160.89	2.04E-06	8.91E-05	0.0443	0.0010238	214	0.0046728	359410	369290	1507.7	951.44	1666.2	80.568	0.000020533	1.67E-05	0.025999
359.5	2.13E+06	1020.8	0.00097958	308080	310170	1343	932.01	1783.7	159.02	2.09E-06	8.83E-05	0.044225	0.0009942	216		0	0	0	0	0		0		
